SessionID,LoggingTime,UID,RecNo,Hertz,Activity,MoveType,Wrist,Side,TimeStamp,DMRoll,DMPitch,DMYaw,DMRotX,DMRotY,DMRotZ,DMGrvX,DMGrvY,DMGrvZ,DMUAccelX,DMUAccelY,DMUAccelZ,DMQuatX,DMQuatY,DMQuatW,DMQuatZ,AccelroX,AceelroY,AceelroZ
20220122-1411,2022-01-22 14:11:40Z,u01, 1,40,movements,el-ex, rt, d,294761.034341, 1.3442247855904381, -0.46779962640371114, 0.3747200225316901, 0.01768476888537407, 0.024166902527213097, 0.06022597849369049, 0.8697510957717896, 0.4509234130382538, -0.20050357282161713, 0.008407771587371826, -0.008082717657089233, -0.0017667114734649658, -0.29100867289704757, 0.561303988573135, 0.7747593959929356,0.0,0.8781585693359375,0.442840576171875,-0.2022705078125
20220122-1411,2022-01-22 14:11:40Z,u01, 2,40,movements,el-ex, rt, d,294761.05928600003, 1.343708031422227, -0.46469790231099944, 0.373920739753445, 0.047151315957307816, 0.021045943722128868, 0.05678464099764824, 0.8710059523582458, 0.4481527507305145, -0.20126692950725555, 0.016750693321228027, 0.009641587734222412, -0.003643125295639038, -0.28966544243757963, 0.5616586746038901, 0.7750053717191846,0.0007404748297341057,0.8869171142578125,0.46124267578125,-0.2047882080078125
20220122-1411,2022-01-22 14:11:40Z,u01, 3,40,movements,el-ex, rt, d,294761.08423100004, 1.3443495758551176, -0.4630360780333485, 0.37256371444869985, 0.05760495364665985, -0.3644941747188568, 0.3644145131111145, 0.8718593120574951, 0.44666653871536255, -0.20087499916553497, -0.4123712182044983, 0.067310631275177, 0.08355039358139038, -0.2886845751980571, 0.5623377216493476, 0.7748789411013667,0.0006443226812647973,0.4594879150390625,0.51397705078125,-0.1173248291015625
20220122-1411,2022-01-22 14:11:40Z,u01, 4,40,movements,el-ex, rt, d,294761.109175, 1.3440709163717188, -0.4612412886243155, 0.37144667855190544, 0.05056408792734146, 0.023890601471066475, 0.05548355355858803, 0.8725829720497131, 0.44506001472473145, -0.2012978047132492, -0.0020841360092163086, 0.014946788549423218, -0.00040793418884277344, -0.28772223025303956, 0.5626428855426389, 0.7750150822884995,0.0008158918386092506,0.850982666015625,0.4599761962890625,-0.197509765625
20220122-1411,2022-01-22 14:11:40Z,u01, 5,40,movements,el-ex, rt, d,294761.13412, 1.344139009316356, -0.4597184512592608, 0.3713300582375421, -0.015841465443372726, -0.011608337983489037, 0.07867749035358429, 0.8732560276985168, 0.4436958134174347, -0.20139044523239136, -0.017741382122039795, 0.006072312593460083, 0.015035107731819153, -0.28713928052465815, 0.5628994647886689, 0.775044385972187,0.001239624384133331,0.8555145263671875,0.44976806640625,-0.1863555908203125
20220122-1411,2022-01-22 14:11:40Z,u01, 6,40,movements,el-ex, rt, d,294761.159065, 1.3446110866566983, -0.45786470764179515, 0.37264866465155333, -0.03435602784156799, -0.003479304723441601, 0.08773437142372131, 0.8741511702537537, 0.4420337677001953, -0.20116232335567474, -0.027105093002319336, 0.01200684905052185, 0.003881692886352539, -0.28684108444406775, 0.5631527592759199, 0.7749685707907515,0.002265715815819913,0.850555419921875,0.459625244140625,-0.199951171875
20220122-1411,2022-01-22 14:11:40Z,u01, 7,40,movements,el-ex, rt, d,294761.18401, 1.3452031010957717, -0.45569049729100186, 0.3739245837663682, -0.010272862389683723, -0.001472746953368187, 0.10161010175943375, 0.8752045631408691, 0.44008246064186096, -0.20085923373699188, -0.009268224239349365, 0.03161248564720154, -0.00189933180809021, -0.2864158186145982, 0.5635036502957264, 0.7748666520884138,0.0033590529092730192,0.865936279296875,0.4716949462890625,-0.2027587890625
20220122-1411,2022-01-22 14:11:40Z,u01, 8,40,movements,el-ex, rt, d,294761.20895500004, 1.3452074620664252, -0.4533863175358777, 0.37456195937102194, -0.0019322410225868225, -0.018216572701931, 0.09098967909812927, 0.8761916756629944, 0.4380122423171997, -0.2010817527770996, -0.004334747791290283, 0.02327638864517212, 0.0038315951824188232, -0.28576281783238516, 0.5637364030961555, 0.7749338254369404,0.004330315518090988,0.8709259033203125,0.4608612060546875,-0.197906494140625
20220122-1411,2022-01-22 14:11:40Z,u01, 9,40,movements,el-ex, rt, d,294761.23389900004, 1.345226224746373, -0.4514112386876101, 0.375737624354183, -0.03439800441265106, -0.017888138070702553, 0.087516188621521, 0.8770369291305542, 0.43623584508895874, -0.20125842094421387, -0.006599068641662598, 0.026105612516403198, 0.004252403974533081, -0.2853804426702855, 0.5638517486249309, 0.7749840597441153,0.005404560454294383,0.8704376220703125,0.46234130859375,-0.1970062255859375
20220122-1411,2022-01-22 14:11:40Z,u01, 10,40,movements,el-ex, rt, d,294761.258844, 1.345056815037331, -0.45081947578268544, 0.3766458725959309, -0.0039459578692913055, -0.004816810600459576, 0.06323695182800293, 0.8772542476654053, 0.4357032775878906, -0.2014647275209427, -0.018367290496826172, 0.026485562324523926, -0.006741255521774292, -0.2854221069823011, 0.5637391745950936, 0.7750464518479886,0.005966855170151886,0.8565826416015625,0.4646453857421875,-0.20819091796875
20220122-1411,2022-01-22 14:11:40Z,u01, 11,40,movements,el-ex, rt, d,294761.2837890417, 1.3455029341306761, -0.45167790688864895, 0.3765021033139209, 0.04311159998178482, 0.0327996090054512, 0.045264676213264465, 0.8769790530204773, 0.4364757835865021, -0.2009897083044052, -0.007807791233062744, 0.03389173746109009, -0.004942655563354492, -0.2856931124728992, 0.5638125511743634, 0.7748960652033613,0.005577341179491657,0.869171142578125,0.470367431640625,-0.2059326171875
20220122-1411,2022-01-22 14:11:40Z,u01, 12,40,movements,el-ex, rt, d,294761.3087340417, 1.3459105972590821, -0.451531690364738, 0.37533327312079484, 0.06054162234067917, 0.010107675567269325, 0.03751920163631439, 0.877123236656189, 0.4363442361354828, -0.20064643025398254, 0.009504199028015137, 0.025478452444076538, -0.00415685772895813, -0.2853117442451622, 0.5641577720295006, 0.7747886078900724,0.005112354266019525,0.88848876953125,0.4622650146484375,-0.20672607421875
20220122-1411,2022-01-22 14:11:40Z,u01, 13,40,movements,el-ex, rt, d,294761.3336790417, 1.3451760000251565, -0.45238176347848913, 0.374166124675073, 0.02874341420829296, -0.002611180767416954, 0.026754040271043777, 0.8766137361526489, 0.43710896372795105, -0.20120763778686523, 0.0017281770706176758, 0.023462414741516113, -0.001642465591430664, -0.28528807667268985, 0.5639209983413398, 0.7749734272561749,0.004497444422593644,0.8783416748046875,0.4605712890625,-0.202850341796875
20220122-1411,2022-01-22 14:11:40Z,u01, 14,40,movements,el-ex, rt, d,294761.3586230417, 1.344571381660002, -0.4532782917589879, 0.3733486880264656, 0.03381393849849701, 0.012552592903375626, 0.008849873207509518, 0.8761096000671387, 0.4379151165485382, -0.20164963603019714, -0.001780867576599121, 0.02322077751159668, 0.0029499083757400513, -0.28538050277055427, 0.5636782362570729, 0.7751187589937228,0.003984935196445993,0.874908447265625,0.4614410400390625,-0.1975860595703125
20220122-1411,2022-01-22 14:11:40Z,u01, 15,40,movements,el-ex, rt, d,294761.38356804167, 1.3444357390709971, -0.45427251112783573, 0.3723025792807269, 0.04209084436297417, 0.03354775533080101, 0.005333836190402508, 0.8756576776504517, 0.43880870938301086, -0.20167067646980286, 0.012709319591522217, 0.019977450370788574, -0.008030682802200317, -0.2854449203889306, 0.5636362812748787, 0.7751289176303613,0.0032862519861777684,0.88836669921875,0.4587860107421875,-0.2097015380859375
20220122-1411,2022-01-22 14:11:40Z,u01, 16,40,movements,el-ex, rt, d,294761.4085130417, 1.3448472990877354, -0.45407166536517923, 0.3711616830365684, 0.04427097365260124, 0.03397852182388306, 0.028415851294994354, 0.875826358795166, 0.438628226518631, -0.20132999122142792, 0.04299706220626831, 0.018052130937576294, -0.0009555816650390625, -0.28505131120357424, 0.5639864817988238, 0.7750206953235774,0.0028485550548248417,0.9234466552734375,0.45257568359375,-0.1992950439453125
20220122-1411,2022-01-22 14:11:40Z,u01, 17,40,movements,el-ex, rt, d,294761.4334580417, 1.34448071556141, -0.4535132791276837, 0.37033687125233583, 0.04888073727488518, -0.038938894867897034, 0.04330844804644585, 0.8759909868240356, 0.4381263554096222, -0.2017059624195099, 0.035737037658691406, 0.005355149507522583, -0.0072629451751708984, -0.28461622126836356, 0.5640395576680897, 0.7751422784211862,0.002756692521562687,0.9117279052734375,0.4434814453125,-0.2089691162109375
20220122-1411,2022-01-22 14:11:40Z,u01, 18,40,movements,el-ex, rt, d,294761.4584030417, 1.3423721605986574, -0.45246696746208004, 0.36816823716123875, 0.1315762847661972, -0.0351707860827446, 0.012422971427440643, 0.8760098218917847, 0.4371855854988098, -0.20365628600120544, -0.019213318824768066, 0.011102437973022461, -0.018496155738830566, -0.28362318295929245, 0.5636752121865842, 0.7757717814656786,0.0025441440208844868,0.8418426513671875,0.44805908203125,-0.2223968505859375
20220122-1411,2022-01-22 14:11:40Z,u01, 19,40,movements,el-ex, rt, d,294761.4833470417, 1.3408130163673888, -0.45220314851821336, 0.3639517195288426, 0.17238286137580872, 0.02768254280090332, -0.0380859412252903, 0.8758034110069275, 0.436948299407959, -0.20504812896251678, -0.03530341386795044, 0.013628542423248291, -0.029982790350914, -0.28233766014400286, 0.5637032708128593, 0.7762233568224672,0.0012115213136500436,0.8404998779296875,0.4505767822265625,-0.2350311279296875
20220122-1411,2022-01-22 14:11:40Z,u01, 20,40,movements,el-ex, rt, d,294761.50829204166, 1.3389524603197769, -0.4521120298394834, 0.35969026079074234, 0.10935473442077637, -0.059273459017276764, -0.05100420489907265, 0.8754592537879944, 0.4368663430213928, -0.20668643712997437, 0.015623688697814941, 0.0006032586097717285, -0.03630954027175903, -0.28110306839168975, 0.5635936881605754, 0.7767518552046104,-0.00015230296010193545,0.9005889892578125,0.433685302734375,-0.235076904296875
20220122-1411,2022-01-22 14:11:40Z,u01, 21,40,movements,el-ex, rt, d,294761.5332370417, 1.3355352538449565, -0.45349884064880847, 0.3592662568402798, -0.11814276874065399, -0.1839158535003662, -0.05288925766944885, 0.874157726764679, 0.43811339139938354, -0.2095354050397873, 0.03790593147277832, -0.01710808277130127, 0.0034961998462677, -0.28148854327334927, 0.5621356594838905, 0.7776681440153519,-0.00027043311291813366,0.9120635986328125,0.4210052490234375,-0.2060394287109375
20220122-1411,2022-01-22 14:11:40Z,u01, 22,40,movements,el-ex, rt, d,294761.5581820417, 1.3316729847259803, -0.45660514037296973, 0.3637623151002356, -0.23504221439361572, -0.23415400087833405, -0.08669356256723404, 0.8720155358314514, 0.44090357422828674, -0.21258670091629028, 0.017251551151275635, -0.01281815767288208, 0.010133326053619385, -0.2838792909038681, 0.5595705452453206, 0.7786477869483897,0.0010547205878868593,0.880035400390625,0.43194580078125,-0.204681396484375
20220122-1411,2022-01-22 14:11:40Z,u01, 23,40,movements,el-ex, rt, d,294761.5831270417, 1.327438436111233, -0.46009896857284505, 0.36817673336831774, -0.15049365162849426, -0.18508045375347137, -0.10261766612529755, 0.869607150554657, 0.4440367817878723, -0.2159048616886139, -0.02489572763442993, -0.003942757844924927, -0.0111456960439682, -0.2863798612528292, 0.5568070949128551, 0.7797097577186295,0.002289445178686844,0.8447113037109375,0.440093994140625,-0.22705078125
20220122-1411,2022-01-22 14:11:40Z,u01, 24,40,movements,el-ex, rt, d,294761.6080710417, 1.3250645636373506, -0.46208159280307814, 0.37040838466549303, -0.06203542649745941, -0.09543712437152863, -0.04457033798098564, 0.8682366013526917, 0.4458123743534088, -0.21775402128696442, -0.0217551589012146, -0.00861746072769165, 0.0015829801559448242, -0.28771925503316426, 0.5552842691237772, 0.7803005106239604,0.002883750888109826,0.85394287109375,0.4361572265625,-0.206024169921875
20220122-1411,2022-01-22 14:11:40Z,u01, 25,40,movements,el-ex, rt, d,294761.6330160417, 1.323920857622979, -0.46148155489540993, 0.37191591238291566, -0.04236641526222229, -0.13322079181671143, 0.027635615319013596, 0.8682461977005005, 0.4452751576900482, -0.21881221234798431, 0.018472671508789062, -0.023659497499465942, 0.02197408676147461, -0.28791710408718396, 0.5547050002354275, 0.7806354017266087,0.003823111576657323,0.88671875,0.4216156005859375,-0.19683837890625
20220122-1411,2022-01-22 14:11:40Z,u01, 26,40,movements,el-ex, rt, d,294761.65796104167, 1.3213789756942083, -0.46061197268406273, 0.37407938093397436, -0.09351904690265656, -0.14171114563941956, 0.049459487199783325, 0.8680621981620789, 0.44449639320373535, -0.22111399471759796, 0.0059767961502075195, -0.024070829153060913, 0.014525443315505981, -0.28819374565557704, 0.5535226892307569, 0.7813636271142202,0.005304062052697123,0.86993408203125,0.420989990234375,-0.2078857421875
20220122-1411,2022-01-22 14:11:40Z,u01, 27,40,movements,el-ex, rt, d,294761.6829060417, 1.3194750592673299, -0.46034448342196266, 0.37726995948275754, -0.12785671651363373, -0.10604329407215118, 0.05539953336119652, 0.8677546977996826, 0.4442567527294159, -0.22279585897922516, -0.002749025821685791, -0.02206122875213623, 0.029558777809143066, -0.28897249695512994, 0.5523558364708195, 0.7818889698917362,0.0069086443828697,0.8650054931640625,0.4221954345703125,-0.1932373046875
20220122-1411,2022-01-22 14:11:40Z,u01, 28,40,movements,el-ex, rt, d,294761.7078510417, 1.3197461864078068, -0.4594617747747028, 0.3813246440513176, -0.08659156411886215, -0.062367185950279236, 0.05328764766454697, 0.8681945204734802, 0.4434657692909241, -0.22265788912773132, -0.016418278217315674, -0.015410900115966797, 0.03660769760608673, -0.2897711953348296, 0.5519997388763647, 0.7818266064671643,0.008728170770657684,0.8471527099609375,0.4330291748046875,-0.1919403076171875
20220122-1411,2022-01-22 14:11:40Z,u01, 29,40,movements,el-ex, rt, d,294761.7327950417, 1.3209356610416902, -0.45747320400672353, 0.3827865387093508, 0.03885596990585327, 0.032036010175943375, 0.07379451394081116, 0.8693117499351501, 0.4416825473308563, -0.2218427062034607, -0.01109611988067627, 0.0018143057823181152, 0.011576801538467407, -0.2894557136119088, 0.5525341926680011, 0.781554071183198,0.009744222770610877,0.85821533203125,0.4434967041015625,-0.21026611328125
20220122-1411,2022-01-22 14:11:40Z,u01, 30,40,movements,el-ex, rt, d,294761.7577400417, 1.3218033262858224, -0.4547826970745887, 0.38231456629647503, 0.03192179650068283, 0.02260076440870762, 0.10546383261680603, 0.8706522583961487, 0.439267098903656, -0.221380352973938, 0.004881918430328369, -0.01282966136932373, 0.02249753475189209, -0.28834928566291446, 0.5533213460056067, 0.7813993015291868,0.010269576825988502,0.875946044921875,0.423004150390625,-0.193817138671875
20220122-1411,2022-01-22 14:11:41Z,u01, 31,40,movements,el-ex, rt, d,294761.78268504166, 1.3239441844092708, -0.4519336470535771, 0.38355457881562344, 0.005555435083806515, 0.03462866693735123, 0.11465173959732056, 0.8723343014717102, 0.4367058575153351, -0.21982082724571228, -0.01570570468902588, -0.00875777006149292, 0.029727041721343994, -0.2876663169240101, 0.5543804410125766, 0.7808855524792347,0.011330734244576812,0.85662841796875,0.427947998046875,-0.190093994140625
20220122-1411,2022-01-22 14:11:41Z,u01, 32,40,movements,el-ex, rt, d,294761.8076300417, 1.3255524078933456, -0.4495277519299176, 0.38332861797222867, 0.07111746072769165, 0.07363372296094894, 0.10978974401950836, 0.8737033605575562, 0.4345402419567108, -0.21867208182811737, -0.017791926860809326, 0.009749948978424072, 0.011778369545936584, -0.28673678361770993, 0.5553791249104165, 0.7805113037127144,0.0117598499868804,0.859466552734375,0.442474365234375,-0.208160400390625
20220122-1411,2022-01-22 14:11:41Z,u01, 33,40,movements,el-ex, rt, d,294761.8325750417, 1.327508532771542, -0.4464670954723336, 0.3823012929850965, 0.06324922293424606, 0.08261749893426895, 0.11786217987537384, 0.8754161596298218, 0.4317816197872162, -0.2172819823026657, -0.014301538467407227, -0.005008488893508911, 0.028012171387672424, -0.2853483278430925, 0.5567183699342003, 0.780061796313652,0.012032139151459287,0.861114501953125,0.4267730712890625,-0.18927001953125
20220122-1411,2022-01-22 14:11:41Z,u01, 34,40,movements,el-ex, rt, d,294761.8575200417, 1.3301259758211152, -0.44336225068208274, 0.3819822393918119, 0.041554681956768036, 0.1014997735619545, 0.11344845592975616, 0.8772795796394348, 0.4289790391921997, -0.21530836820602417, -0.020040690898895264, -0.004860967397689819, 0.02477206289768219, -0.28414519173549235, 0.5582179927691729, 0.7794215446097748,0.012502924470684018,0.8584136962890625,0.4258270263671875,-0.1935882568359375
20220122-1411,2022-01-22 14:11:41Z,u01, 35,40,movements,el-ex, rt, d,294761.8824640417, 1.333087995109737, -0.4409097839999598, 0.38156967144183934, 0.05440010502934456, 0.11320849508047104, 0.11019952595233917, 0.8789333701133728, 0.4267624318599701, -0.2129560261964798, -0.0060389041900634766, 0.00533604621887207, 0.012760937213897705, -0.2831562533786674, 0.5597718523935061, 0.7786637312656178,0.012687840814291473,0.872894287109375,0.432098388671875,-0.2001953125
20220122-1411,2022-01-22 14:11:41Z,u01, 36,40,movements,el-ex, rt, d,294761.9074090417, 1.335864905541474, -0.4384352406960055, 0.3814607134081148, 0.010580288246273994, 0.10366792231798172, 0.10470563173294067, 0.8805456757545471, 0.4245232343673706, -0.21075965464115143, -0.005972802639007568, 0.006964892148971558, 0.01747681200504303, -0.2822439087727474, 0.5612116795968184, 0.7779526220505769,0.01302677108839384,0.8741302490234375,0.4291839599609375,-0.1937408447265625
20220122-1411,2022-01-22 14:11:41Z,u01, 37,40,movements,el-ex, rt, d,294761.93235404167, 1.3395733310800042, -0.4363266936820956, 0.3824139540693688, -0.01122317835688591, 0.10928419232368469, 0.09462336450815201, 0.8821906447410583, 0.4226131737232208, -0.20769746601581573, -0.0021549463272094727, 0.009424299001693726, 0.002711087465286255, -0.2817705713359838, 0.5628113439674025, 0.7769593412238978,0.013535073717454937,0.880035400390625,0.432037353515625,-0.204986572265625
20220122-1411,2022-01-22 14:11:41Z,u01, 38,40,movements,el-ex, rt, d,294761.9572990417, 1.343038281881784, -0.4348020546098469, 0.38393016473205493, -0.05638173595070839, 0.09728239476680756, 0.09135593473911285, 0.8835316300392151, 0.42123088240623474, -0.20478473603725433, 0.002012312412261963, 0.00799897313117981, 0.0009123086929321289, -0.2816687591479489, 0.5641545402553593, 0.7760112184407457,0.014114352063380187,0.886199951171875,0.42742919921875,-0.2043914794921875
20220122-1411,2022-01-22 14:11:41Z,u01, 39,40,movements,el-ex, rt, d,294761.9822440417, 1.3467512023650876, -0.4336607852114677, 0.38676541947661086, -0.08899091184139252, 0.08114716410636902, 0.09107504040002823, 0.884753942489624, 0.4201955199241638, -0.20160949230194092, -0.0007206201553344727, 0.017762333154678345, -0.0027359724044799805, -0.2820832581701965, 0.5653532397944676, 0.7749699468148339,0.015049498177799492,0.884033203125,0.437957763671875,-0.204345703125
20220122-1411,2022-01-22 14:11:41Z,u01, 40,40,movements,el-ex, rt, d,294762.0071880417, 1.3499191373663457, -0.43251269364060224, 0.3888819141985136, -0.02916419506072998, 0.10033178329467773, 0.06326258182525635, 0.8858583569526672, 0.4191534221172333, -0.19891120493412018, -0.0016418695449829102, 0.035177081823349, -0.013948678970336914, -0.28229159475447313, 0.5664413911369359, 0.774084382019235,0.015784150953511655,0.884521484375,0.4552764892578125,-0.2162933349609375
20220122-1411,2022-01-22 14:11:41Z,u01, 41,40,movements,el-ex, rt, d,294762.0321330417, 1.3521157031052715, -0.43158182019183405, 0.38883332840736146, 0.02549142763018608, 0.10854436457157135, 0.047550663352012634, 0.8866735696792603, 0.4183081090450287, -0.19704943895339966, 0.0069727301597595215, 0.0335199236869812, -0.020174473524093628, -0.28195910794104084, 0.5674278319518067, 0.7734835233558341,0.015749445859046307,0.893646240234375,0.4518280029296875,-0.21722412109375
20220122-1411,2022-01-22 14:11:41Z,u01, 42,40,movements,el-ex, rt, d,294762.05707804166, 1.3541037145977437, -0.43054121811437807, 0.3882112055716299, 0.024306420236825943, 0.08610930293798447, 0.040960341691970825, 0.8874882459640503, 0.41736268997192383, -0.1953798234462738, 0.012856781482696533, 0.024531930685043335, -0.024407491087913513, -0.2814225917768795, 0.5684288994625255, 0.772947611420757,0.015557926562401181,0.9001312255859375,0.441436767578125,-0.219451904296875
20220122-1411,2022-01-22 14:11:41Z,u01, 43,40,movements,el-ex, rt, d,294762.0820230417, 1.3554439043144082, -0.43018693113653206, 0.3878578706925386, 0.014104781672358513, 0.06464315950870514, 0.04292735084891319, 0.8878936767578125, 0.41704070568084717, -0.19422182440757751, 0.007614254951477051, 0.022610872983932495, -0.026648879051208496, -0.28120472092195875, 0.5690456839540452, 0.7725772371271755,0.015345010129234782,0.8955078125,0.4396514892578125,-0.2208709716796875
20220122-1411,2022-01-22 14:11:41Z,u01, 44,40,movements,el-ex, rt, d,294762.1069680417, 1.3562022336395303, -0.4299395540794202, 0.3871717266682661, 0.03587132692337036, 0.0575394444167614, 0.009738504886627197, 0.8881415724754333, 0.416815847158432, -0.19357043504714966, -0.0060460567474365234, 0.02506348490715027, -0.02862781286239624, -0.28092599842552257, 0.5694693691575875, 0.7723722672660576,0.015051768548144995,0.879302978515625,0.442474365234375,-0.2241058349609375
20220122-1411,2022-01-22 14:11:41Z,u01, 45,40,movements,el-ex, rt, d,294762.1319120417, 1.3564806305628934, -0.42983476238767376, 0.3850725907154551, 0.09947773814201355, 0.06520535051822662, 0.006874541752040386, 0.8882379531860352, 0.41672059893608093, -0.19333243370056152, 0.002799093723297119, 0.027127087116241455, -0.03637310862541199, -0.2802923692089187, 0.5698859269643959, 0.7723106012704626,0.014235247980440457,0.8910369873046875,0.44384765625,-0.229705810546875
20220122-1411,2022-01-22 14:11:41Z,u01, 46,40,movements,el-ex, rt, d,294762.1568570417, 1.35608609759327, -0.42919536286829046, 0.3820575197512074, 0.09897775948047638, 0.024781296029686928, 0.0018833111971616745, 0.8884217143058777, 0.41613927483558655, -0.19373957812786102, 0.01048886775970459, 0.016661018133163452, -0.03137311339378357, -0.2791996306511234, 0.5702436118986002, 0.7724585170000107,0.013328501185599861,0.8971099853515625,0.43145751953125,-0.2259063720703125
20220122-1411,2022-01-22 14:11:41Z,u01, 47,40,movements,el-ex, rt, d,294762.1818020417, 1.355063215213294, -0.4292570864499331, 0.37983047577270407, 0.04572775587439537, 0.00967244990170002, -0.008685910142958164, 0.8881981372833252, 0.4161953926086426, -0.19464276731014252, 0.006501197814941406, 0.009036660194396973, -0.030134230852127075, -0.2785803307265091, 0.5701505211137419, 0.7727632567152145,0.012591309002416895,0.8946990966796875,0.42523193359375,-0.2247772216796875
20220122-1411,2022-01-22 14:11:41Z,u01, 48,40,movements,el-ex, rt, d,294762.20674704167, 1.3539870673813923, -0.4299672465889863, 0.3789553197921147, -0.0026752296835184097, -0.027904020622372627, -0.028783787041902542, 0.8876993060112, 0.4168410301208496, -0.1955348551273346, 0.008174896240234375, 0.009886354207992554, -0.02147543430328369, -0.27858082254902494, 0.5697589807510473, 0.7730584344699956,0.012178376382167455,0.89349365234375,0.4254150390625,-0.2165374755859375
20220122-1411,2022-01-22 14:11:41Z,u01, 49,40,movements,el-ex, rt, d,294762.2316920417, 1.352093423255067, -0.4310448603334556, 0.37827464729835236, 0.014282314106822014, -0.03563917428255081, -0.04194379597902298, 0.8868885040283203, 0.4178203046321869, -0.19711793959140778, -0.0069901347160339355, 0.008067905902862549, -0.016428619623184204, -0.2787652156621363, 0.5689736259268597, 0.7735755441272821,0.01183850112591045,0.8798980712890625,0.4258880615234375,-0.2135467529296875
20220122-1411,2022-01-22 14:11:41Z,u01, 50,40,movements,el-ex, rt, d,294762.2566360417, 1.3502358523731859, -0.431906333266284, 0.3766286889577357, 0.05806537717580795, -0.016338644549250603, -0.03675456345081329, 0.8861691355705261, 0.4186028242111206, -0.19868621230125427, -0.003707408905029297, 0.008353441953659058, -0.012601971626281738, -0.2785982191996429, 0.5683660157231463, 0.7740917952541622,0.01118852588640784,0.8873138427734375,0.4261322021484375,-0.2123870849609375
20220122-1411,2022-01-22 14:11:41Z,u01, 51,40,movements,el-ex, rt, d,294762.281581875, 1.3479651777700934, -0.43229289216485023, 0.3746375440967957, 0.037293292582035065, -0.05178951472043991, -0.03340796381235123, 0.8855578303337097, 0.41895386576652527, -0.20066212117671967, 0.011628568172454834, -0.0028465986251831055, -0.006811365485191345, -0.2781603325099621, 0.5677109885546077, 0.7747378009402217,0.010611722908130783,0.897186279296875,0.416107177734375,-0.2074737548828125
20220122-1411,2022-01-22 14:11:41Z,u01, 52,40,movements,el-ex, rt, d,294762.306526875, 1.345882681845441, -0.4331176953217954, 0.37457520797727784, -0.057732291519641876, -0.08554534614086151, -0.029927214607596397, 0.884800910949707, 0.4197026491165161, -0.20242872834205627, -0.00023347139358520508, -0.01311686635017395, 0.010549664497375488, -0.278430650230052, 0.5667997937799897, 0.7753076059378379,0.010617639352529351,0.881378173828125,0.40374755859375,-0.1903076171875
20220122-1411,2022-01-22 14:11:41Z,u01, 53,40,movements,el-ex, rt, d,294762.331471875, 1.3442058191291633, -0.43461935229750254, 0.37660760906921664, -0.10911814868450165, -0.06228110194206238, -0.03397821635007858, 0.8838449716567993, 0.42106518149375916, -0.20377029478549957, -0.013926029205322266, -0.00671270489692688, 0.018544092774391174, -0.2795416342885062, 0.5656600830822993, 0.775732263983052,0.011167269194751306,0.8699188232421875,0.4143524169921875,-0.1852264404296875
20220122-1411,2022-01-22 14:11:41Z,u01, 54,40,movements,el-ex, rt, d,294762.35641687503, 1.3437989378375765, -0.4356030610659983, 0.378231190889132, -0.012253954075276852, -0.018749671056866646, -0.02882213518023491, 0.8833580613136292, 0.42195722460746765, -0.20403659343719482, -0.007442355155944824, 0.00011622905731201172, 0.015361905097961426, -0.28035507157505724, 0.5651395753467718, 0.7758125949605648,0.011544730743628329,0.8791656494140625,0.425384521484375,-0.1881866455078125
20220122-1411,2022-01-22 14:11:41Z,u01, 55,40,movements,el-ex, rt, d,294762.38136087504, 1.3437616525489686, -0.4353859123112975, 0.37746307055250544, 0.06613406538963318, 0.014152087271213531, -0.0018741423264145851, 0.8834397196769714, 0.42176035046577454, -0.2040901482105255, 0.003950595855712891, 0.0037615597248077393, 0.016254663467407227, -0.2800590280253048, 0.5652626496356148, 0.7758332012565671,0.011320261672638054,0.88739013671875,0.4255218505859375,-0.187835693359375
20220122-1411,2022-01-22 14:11:41Z,u01, 56,40,movements,el-ex, rt, d,294762.406305875, 1.3441573491126826, -0.4347312709543792, 0.37578508288973045, 0.06188422441482544, 0.03661911189556122, 0.00244210846722126, 0.8837891817092896, 0.42116668820381165, -0.20380254089832306, 0.009216248989105225, 0.0005252659320831299, 0.01991911232471466, -0.2793493120722752, 0.565740832237767, 0.7757476012563589,0.010819825064124877,0.8950958251953125,0.4225311279296875,-0.182220458984375
20220122-1411,2022-01-22 14:11:41Z,u01, 57,40,movements,el-ex, rt, d,294762.431250875, 1.3451354448647406, -0.4345682902689683, 0.3748107615446435, 0.044241778552532196, 0.030420204624533653, -0.0019455822184681892, 0.8840550184249878, 0.4210188686847687, -0.20295338332653046, 0.010857820510864258, -0.0017835497856140137, 0.013973474502563477, -0.2790196257514652, 0.5662785168529223, 0.7754802364278626,0.010356699800091851,0.8949127197265625,0.4192352294921875,-0.1889801025390625
20220122-1411,2022-01-22 14:11:41Z,u01, 58,40,movements,el-ex, rt, d,294762.456195875, 1.3459858367595599, -0.43466838704713573, 0.37367131418092175, 0.06399618089199066, 0.05157289654016495, -0.013802241533994675, 0.884186327457428, 0.4211096465587616, -0.20219214260578156, 0.002013862133026123, 0.005541473627090454, -0.0002155005931854248, -0.2787374287319972, 0.5667533618060152, 0.775242561898637,0.009764907534271117,0.883819580078125,0.426910400390625,-0.20245361328125
20220122-1411,2022-01-22 14:11:41Z,u01, 59,40,movements,el-ex, rt, d,294762.481140875, 1.3475871801297612, -0.4347850453748146, 0.3719310137033217, 0.074040487408638, 0.06088770180940628, -0.01951059326529503, 0.884460985660553, 0.4212154448032379, -0.20076510310173035, 0.015899300575256348, 0.0029636919498443604, 0.0008447170257568359, -0.2782936566769427, 0.567600288336581, 0.7747933833416132,0.008830784728348529,0.900360107421875,0.4241790771484375,-0.199920654296875
20220122-1411,2022-01-22 14:11:41Z,u01, 60,40,movements,el-ex, rt, d,294762.50608587504, 1.3488135570452047, -0.43473102097008287, 0.37060890084455317, 0.02746489644050598, 0.03902587294578552, -0.01579754799604416, 0.8847287893295288, 0.42116644978523254, -0.19968529045581818, 0.018179774284362793, -0.004479348659515381, -0.001242220401763916, -0.27790384352823316, 0.5682664939169608, 0.7744522146306163,0.008165215746529675,0.89984130859375,0.4168853759765625,-0.1998138427734375
20220122-1411,2022-01-22 14:11:41Z,u01, 61,40,movements,el-ex, rt, d,294762.53102987504, 1.3501059998072207, -0.43514151348231583, 0.37052368857351364, -0.0038062413223087788, 0.05564553290605545, -0.01813666895031929, 0.8848174214363098, 0.42153874039649963, -0.19850382208824158, 0.014184832572937012, -0.004607498645782471, 0.014391481876373291, -0.27803349899123864, 0.56872266106997, 0.7740743119131046,0.00782318691136158,0.8990020751953125,0.41693115234375,-0.184112548828125
20220122-1411,2022-01-22 14:11:41Z,u01, 62,40,movements,el-ex, rt, d,294762.555974875, 1.351397055761455, -0.43596529759669295, 0.36993330270893204, 0.051419660449028015, 0.06791990995407104, -0.040882326662540436, 0.8847336769104004, 0.42228561639785767, -0.19728565216064453, 0.016069114208221436, 0.0008407235145568848, 0.005666017532348633, -0.2781686649759805, 0.5691918580790207, 0.77368720671193,0.007155294226737774,0.9024505615234375,0.4226531982421875,-0.195526123046875
20220122-1411,2022-01-22 14:11:41Z,u01, 63,40,movements,el-ex, rt, d,294762.580919875, 1.3518164539900006, -0.43657736364689326, 0.3674065604920682, 0.09725230187177658, 0.050327129662036896, -0.0697714313864708, 0.884563684463501, 0.42284032702445984, -0.19685834646224976, 0.014163732528686523, 0.008449345827102661, -0.02132686972618103, -0.277672267336598, 0.5696217529345213, 0.7735593559808374,0.005926406597280609,0.8987274169921875,0.4312896728515625,-0.2181854248046875
20220122-1411,2022-01-22 14:11:41Z,u01, 64,40,movements,el-ex, rt, d,294762.605864875, 1.3514402215663608, -0.4372968508399073, 0.36451700550809796, 0.08621343225240707, 0.010474659502506256, -0.057230476289987564, 0.8841924667358398, 0.4234922230243683, -0.1971248984336853, 0.004235386848449707, 0.0022890865802764893, -0.024051010608673096, -0.27710871776326085, 0.5697791755083225, 0.7736543939840956,0.004633831202443761,0.8819427490234375,0.421173095703125,-0.218994140625
20220122-1411,2022-01-22 14:11:41Z,u01, 65,40,movements,el-ex, rt, d,294762.63080987503, 1.3514244429786124, -0.43798782965980704, 0.36274097806991984, 0.03941403329372406, 0.007367150858044624, -0.05026484280824661, 0.8839036822319031, 0.4241181015968323, -0.19707515835762024, -0.0173872709274292, -0.014694124460220337, -0.021598368883132935, -0.27685294846468766, 0.5699253172016004, 0.7736433066329459,0.0037309901135860746,0.86651611328125,0.409423828125,-0.2186737060546875
20220122-1411,2022-01-22 14:11:41Z,u01, 66,40,movements,el-ex, rt, d,294762.65575387503, 1.3507640781010795, -0.43885116178857414, 0.36201572227879775, -0.02220752090215683, -0.023243755102157593, -0.04133313521742821, 0.883415699005127, 0.42489975690841675, -0.1975788176059723, -0.008293330669403076, -0.02310517430305481, -0.011359602212905884, -0.2769580052992436, 0.5696532732320724, 0.773808144753899,0.00326948843910585,0.87896728515625,0.4018402099609375,-0.2035064697265625
20220122-1411,2022-01-22 14:11:41Z,u01, 67,40,movements,el-ex, rt, d,294762.68069887505, 1.349357710974789, -0.4396841844418793, 0.36289236307648803, -0.0710342526435852, -0.0420234352350235, -0.02026020735502243, 0.8827912211418152, 0.42565369606018066, -0.19874319434165955, -0.005990505218505859, -0.0212346613407135, 0.006345391273498535, -0.27750708722941564, 0.5688745183543634, 0.7741829496364141,0.003541028262638801,0.876800537109375,0.4044189453125,-0.1923980712890625
20220122-1411,2022-01-22 14:11:41Z,u01, 68,40,movements,el-ex, rt, d,294762.705643875, 1.3481928382351696, -0.43992044930919155, 0.36374590726897355, -0.013850819319486618, -0.027631115168333054, -0.0009658043272793293, 0.8824610114097595, 0.42586749792099, -0.1997492015361786, -0.0016777515411376953, -0.005167335271835327, 0.007305622100830078, -0.27783321596147664, 0.5682729159298292, 0.7745057158375241,0.00395878230224167,0.8782958984375,0.4245452880859375,-0.1917877197265625
20220122-1411,2022-01-22 14:11:41Z,u01, 69,40,movements,el-ex, rt, d,294762.730588875, 1.3470036857373426, -0.4391507290337878, 0.3627889262548913, 0.04859877750277519, 0.018081648275256157, 0.01481249276548624, 0.8825423121452332, 0.4251709282398224, -0.20087113976478577, -0.0005688667297363281, 0.0011902451515197754, 0.01054847240447998, -0.27727974100883424, 0.5680496214721916, 0.7748676707210937,0.003995497667255821,0.8819732666015625,0.426361083984375,-0.1903228759765625
20220122-1411,2022-01-22 14:11:41Z,u01, 70,40,movements,el-ex, rt, d,294762.755533875, 1.3472367501489768, -0.4379840282771598, 0.3613935439134678, 0.06681223958730698, 0.03549625724554062, 0.017395159229636192, 0.8830721974372864, 0.4241146445274353, -0.20077528059482574, 0.0067138671875, 0.0034520328044891357, 0.012924522161483765, -0.2764602187984938, 0.5684910796423641, 0.7748377426630885,0.003789836728276763,0.8887176513671875,0.4263153076171875,-0.19525146484375
20220122-1411,2022-01-22 14:11:41Z,u01, 71,40,movements,el-ex, rt, d,294762.780477875, 1.3477522755425446, -0.4368395394747771, 0.3597170767404221, 0.06983369588851929, 0.03781101107597351, 0.02593265473842621, 0.8836483359336853, 0.42307791113853455, -0.20042724907398224, 0.006091892719268799, -0.0013248622417449951, -0.007977098226547241, -0.27556878799830087, 0.5690766376716453, 0.7747271298629061,0.003429522046977662,0.889739990234375,0.4217529296875,-0.208404541015625
20220122-1411,2022-01-22 14:11:42Z,u01, 72,40,movements,el-ex, rt, d,294762.80542287504, 1.348061335587426, -0.4361959323377817, 0.35880911694623685, 0.018968578428030014, 0.00546012818813324, 0.024014510214328766, 0.8839756846427917, 0.42249464988708496, -0.20021425187587738, 0.009319901466369629, 0.0011962652206420898, 0.001575559377670288, -0.27507711544312197, 0.5694079870499558, 0.7746592330246183,0.0032379240118987074,0.8922882080078125,0.4226226806640625,-0.1972808837890625
20220122-1411,2022-01-22 14:11:42Z,u01, 73,40,movements,el-ex, rt, d,294762.830367875, 1.3483879135866197, -0.43587541712808736, 0.35882978417772976, 0.00719164963811636, -0.017136327922344208, 0.010786524973809719, 0.8841729760169983, 0.4222041368484497, -0.19995540380477905, -0.0012992620468139648, 0.004019737243652344, -0.004176437854766846, -0.27496712586907535, 0.5695747352984756, 0.7745753871548243,0.0033019429746867224,0.88287353515625,0.4262237548828125,-0.204132080078125
20220122-1411,2022-01-22 14:11:42Z,u01, 74,40,movements,el-ex, rt, d,294762.855312875, 1.3477587352462794, -0.4359586335016211, 0.3586298343410817, -0.0023111430928111076, -0.01217452622950077, -0.01674170419573784, 0.8840128183364868, 0.42227956652641296, -0.2005039006471634, -0.002985358238220215, 0.007087677717208862, -0.011272639036178589, -0.27493937649624256, 0.569347333707938, 0.774752519385292,0.0032848012203908206,0.8809661865234375,0.43017578125,-0.212493896484375
20220122-1411,2022-01-22 14:11:42Z,u01, 75,40,movements,el-ex, rt, d,294762.880257875, 1.3474015763145757, -0.4364583556160616, 0.35866942395883944, -0.015278473496437073, -0.01571120321750641, -0.026465704664587975, 0.8837351202964783, 0.42273250222206116, -0.20077282190322876, 0.006493270397186279, 0.0054444074630737305, -0.0002462714910507202, -0.2751316482545257, 0.5691363347034981, 0.7748395657022036,0.003191925799049311,0.890228271484375,0.4281768798828125,-0.201019287109375
20220122-1411,2022-01-22 14:11:42Z,u01, 76,40,movements,el-ex, rt, d,294762.90520287503, 1.3469630525422844, -0.43723218967684274, 0.3586907476424027, 0.010261740535497665, -0.017469223588705063, -0.030406717211008072, 0.8833277821540833, 0.42343366146087646, -0.20108766853809357, 0.004962801933288574, 0.0058113932609558105, -0.0014267563819885254, -0.27541818873084234, 0.5688593720684295, 0.7749418705314007,0.0030170171376370236,0.887298583984375,0.426666259765625,-0.204010009765625
20220122-1411,2022-01-22 14:11:42Z,u01, 77,40,movements,el-ex, rt, d,294762.93014687503, 1.3459864541279603, -0.4379704536711606, 0.35808742323059994, 0.001273072324693203, -0.023264460265636444, -0.019973717629909515, 0.8828260898590088, 0.4241023659706116, -0.20188051462173462, -0.0012188553810119629, -0.0004267096519470215, -0.004158675670623779, -0.2755135304301531, 0.568464631827466, 0.7751988962963153,0.0026854931352076616,0.8816070556640625,0.423675537109375,-0.2060394287109375
20220122-1411,2022-01-22 14:11:42Z,u01, 78,40,movements,el-ex, rt, d,294762.95509187505, 1.3452579796403847, -0.4383519041140297, 0.35817207827462255, -0.00862729549407959, -0.027562936767935753, -0.007955004461109638, 0.8825209140777588, 0.42444777488708496, -0.20248734951019287, 0.0004748106002807617, -0.0008789598941802979, 3.3989548683166504e-05, -0.2756752945305138, 0.5681192268984612, 0.7753944249635556,0.002698732095817502,0.87994384765625,0.4232940673828125,-0.202545166015625
20220122-1411,2022-01-22 14:11:42Z,u01, 79,40,movements,el-ex, rt, d,294762.980036875, 1.3447084893830465, -0.4387224739529139, 0.3581304956036797, 0.01188613660633564, -0.019450347870588303, -0.012560608796775341, 0.8822562098503113, 0.42478325963020325, -0.20293699204921722, -0.013008654117584229, 0.005774050951004028, 0.0021926313638687134, -0.27579748754945216, 0.567862000215107, 0.7755395894339809,0.002641897625197731,0.8692474365234375,0.4305572509765625,-0.20074462890625
20220122-1411,2022-01-22 14:11:42Z,u01, 80,40,movements,el-ex, rt, d,294763.004981875, 1.344286394429391, -0.438962761193462, 0.3572117638718204, 0.04329162836074829, 0.009577641263604164, -0.01981685683131218, 0.8820708990097046, 0.42500078678131104, -0.20328642427921295, -0.0028899312019348145, 0.0005211234092712402, 0.0011077076196670532, -0.2756235255105214, 0.5677926189241808, 0.7756533742670364,0.002268295255162922,0.883544921875,0.4260711669921875,-0.2019805908203125
20220122-1411,2022-01-22 14:11:42Z,u01, 81,40,movements,el-ex, rt, d,294763.029926875, 1.343807970845267, -0.4390131542503968, 0.35590258512360545, 0.04712514951825142, 0.00213656947016716, -0.0114669818431139, 0.8819528222084045, 0.4250464141368866, -0.2037036269903183, 0.014089226722717285, 0.0008264482021331787, 0.005370140075683594, -0.27526968192409895, 0.56778058468265, 0.7757891325991685,0.0018106008931859652,0.8960418701171875,0.425872802734375,-0.198333740234375
20220122-1411,2022-01-22 14:11:42Z,u01, 82,40,movements,el-ex, rt, d,294763.054870875, 1.3433143573005446, -0.4389879634555649, 0.3545079508523257, 0.05246608331799507, 0.0071336571127176285, -0.00586295872926712, 0.8818626403808594, 0.42502361536026, -0.20414136350154877, 0.010914087295532227, -0.00018835067749023438, 0.002740800380706787, -0.27486419570938625, 0.5677842855681636, 0.7759311428411132,0.001345382125333694,0.892425537109375,0.4234466552734375,-0.2015228271484375
20220122-1411,2022-01-22 14:11:42Z,u01, 83,40,movements,el-ex, rt, d,294763.07981587504, 1.3430845900470025, -0.43908683713404256, 0.3535146364560767, 0.023292653262615204, 0.0021355040371418, -0.003050061408430338, 0.8817747235298157, 0.42511311173439026, -0.20433448255062103, 0.010223746299743652, -0.008212387561798096, -0.002345561981201172, -0.2746180646520463, 0.5678183476123043, 0.7759939282809842,0.0009605180656392931,0.891998291015625,0.416900634765625,-0.2066802978515625
20220122-1411,2022-01-22 14:11:42Z,u01, 84,40,movements,el-ex, rt, d,294763.104760875, 1.3429994840706347, -0.4391084906609333, 0.3534058484141631, -0.012529458850622177, -0.01507317740470171, -0.006977557670325041, 0.881748378276825, 0.425132691860199, -0.2044074535369873, 0.006374359130859375, -0.007453799247741699, 0.00045871734619140625, -0.27459502070844954, 0.567797364026911, 0.7760175013598507,0.0009232011531719042,0.884918212890625,0.4181365966796875,-0.2041015625
20220122-1411,2022-01-22 14:11:42Z,u01, 85,40,movements,el-ex, rt, d,294763.129705875, 1.342919567137643, -0.4391702994893789, 0.3535828773454503, 0.013646185398101807, -0.02009063959121704, -0.010634943842887878, 0.8817062973976135, 0.4251886308193207, -0.20447194576263428, -0.0017928481101989746, 0.0026983916759490967, -0.0033067315816879272, -0.27466777260896547, 0.5677337748079897, 0.7760380940390325,0.0009834397055259458,0.879913330078125,0.427886962890625,-0.2077789306640625
20220122-1411,2022-01-22 14:11:42Z,u01, 86,40,movements,el-ex, rt, d,294763.154650875, 1.3422494800841454, -0.4393197850832935, 0.35299189100001477, 0.017303071916103363, -0.020043835043907166, -0.01580313965678215, 0.8815072178840637, 0.4253239333629608, -0.2050483375787735, 0.0024803876876831055, -0.00019875168800354004, -0.005064964294433594, -0.274554183887712, 0.5675348735760686, 0.7762240036286197,0.0007992060982416338,0.885223388671875,0.4218597412109375,-0.20965576171875
20220122-1411,2022-01-22 14:11:42Z,u01, 87,40,movements,el-ex, rt, d,294763.179594875, 1.3416523689636408, -0.4393546162942814, 0.35302626120474384, -0.026811325922608376, -0.034633293747901917, -0.017260823398828506, 0.8813701868057251, 0.425355464220047, -0.2055712789297104, 0.006630420684814453, -0.011842221021652222, 0.0026754289865493774, -0.27457638283333285, 0.5672937246800354, 0.7763922846127569,0.000883586292734162,0.88800048828125,0.41351318359375,-0.2028961181640625
20220122-1411,2022-01-22 14:11:42Z,u01, 88,40,movements,el-ex, rt, d,294763.20453987503, 1.3412004012065688, -0.4397014669775433, 0.3538405809412045, -0.031281642615795135, -0.030086081475019455, -0.0055233389139175415, 0.8811334371566772, 0.4256693422794342, -0.2059360146522522, 0.0007330775260925293, -0.007761597633361816, 0.0021703988313674927, -0.2749334592056475, 0.5669599485976127, 0.7765093648313717,0.0011530476883205298,0.8805084228515625,0.4190826416015625,-0.2035064697265625
20220122-1411,2022-01-22 14:11:42Z,u01, 89,40,movements,el-ex, rt, d,294763.22948487505, 1.34059268010164, -0.4399289788098075, 0.35406802404346077, 0.002079111523926258, -0.016568142920732498, -0.006180873606353998, 0.8809138536453247, 0.4258752167224884, -0.20644937455654144, -0.0036554336547851562, -0.004122227430343628, 0.0005780607461929321, -0.2750804561495207, 0.566662205790796, 0.7766745085411245,0.0012536116861103785,0.87725830078125,0.4217529296875,-0.20587158203125
20220122-1411,2022-01-22 14:11:42Z,u01, 90,40,movements,el-ex, rt, d,294763.254429875, 1.3402062856670884, -0.43990382296929886, 0.3542273020698273, -0.026352962478995323, -0.01980075240135193, -0.0061348676681518555, 0.8808445334434509, 0.4258524477481842, -0.2067922055721283, 0.0005643367767333984, -0.009638398885726929, 0.002355217933654785, -0.2751161459936744, 0.5664936066197747, 0.7767846820813623,0.0013765108876771515,0.8812408447265625,0.41253662109375,-0.204864501953125
20220122-1411,2022-01-22 14:11:42Z,u01, 91,40,movements,el-ex, rt, d,294763.27937479166, 1.3402967371959142, -0.4399133385025061, 0.35548193562359104, -0.0599304661154747, -0.028988860547542572, 0.003331937827169895, 0.8808591961860657, 0.42586106061935425, -0.20671159029006958, 0.001907646656036377, -0.007983803749084473, 0.0015268474817276, -0.2754750251763587, 0.5663547636993858, 0.7767577084214471,0.0018483487455174252,0.8827667236328125,0.417877197265625,-0.2051849365234375
20220122-1411,2022-01-22 14:11:42Z,u01, 92,40,movements,el-ex, rt, d,294763.30431979167, 1.3402858124545334, -0.4399332895008089, 0.3572372607363602, -0.06519772857427597, -0.033479079604148865, 0.015064360573887825, 0.8808487057685852, 0.4258791208267212, -0.2067192643880844, 0.009364485740661621, -0.0020051002502441406, -0.00046432018280029297, -0.2759792395478032, 0.5661058423854589, 0.7767582852480677,0.0025253352405061325,0.8913116455078125,0.4237213134765625,-0.2070465087890625
20220122-1411,2022-01-22 14:11:42Z,u01, 93,40,movements,el-ex, rt, d,294763.3292637917, 1.340332118521303, -0.43974257791626625, 0.3592645106314067, -0.07709164172410965, -0.03167685493826866, 0.01861708238720894, 0.8809373378753662, 0.42570653557777405, -0.2066970318555832, 0.01345670223236084, -0.00198519229888916, 0.0014818012714385986, -0.2764835412037692, 0.565869539233332, 0.7767479478390616,0.0033660572985476644,0.8943939208984375,0.4237213134765625,-0.2052154541015625
20220122-1411,2022-01-22 14:11:42Z,u01, 94,40,movements,el-ex, rt, d,294763.3542087917, 1.340784256224492, -0.43921204329386804, 0.3608664064972487, -0.01722387969493866, 0.010946571826934814, 0.028106529265642166, 0.8812505006790161, 0.4252264201641083, -0.206350177526474, 0.010610580444335938, 0.010747760534286499, -0.005166888236999512, -0.2767444554172671, 0.5658952370424777, 0.776632834071315,0.004091953221820266,0.8913421630859375,0.437530517578125,-0.2127532958984375
20220122-1411,2022-01-22 14:11:42Z,u01, 95,40,movements,el-ex, rt, d,294763.3791537917, 1.340967548678422, -0.4380357111949038, 0.36025230086906, 0.07141124457120895, 0.011742990463972092, 0.03809377923607826, 0.8817747235298157, 0.42416146397590637, -0.2063024491071701, -0.001723945140838623, 0.009539186954498291, -0.003215774893760681, -0.27614275879075706, 0.5662101666165766, 0.7766168901508408,0.004197037163025441,0.8800506591796875,0.4337005615234375,-0.2095184326171875
20220122-1411,2022-01-22 14:11:42Z,u01, 96,40,movements,el-ex, rt, d,294763.4040987917, 1.3404102243783544, -0.43652093155205696, 0.3582070707849206, 0.09004998207092285, 0.011562827974557877, 0.03522063046693802, 0.8822841048240662, 0.42278918623924255, -0.20694032311439514, -0.01784306764602661, 0.001252591609954834, -0.0037528127431869507, -0.2750106584597395, 0.5664794549454097, 0.7768234660683224,0.003954481575630497,0.8603057861328125,0.422576904296875,-0.2086029052734375
20220122-1411,2022-01-22 14:11:42Z,u01, 97,40,movements,el-ex, rt, d,294763.42904379166, 1.3398400791276979, -0.4355423904345237, 0.35644405485995445, 0.05236784741282463, -0.011210662312805653, 0.025071054697036743, 0.8825684189796448, 0.42190220952033997, -0.2075379490852356, -0.01332080364227295, -0.0038875937461853027, 0.0021548867225646973, -0.27415336850400795, 0.5666312322965259, 0.7770173181133968,0.0036545932040055185,0.8692474365234375,0.4180145263671875,-0.20538330078125
20220122-1411,2022-01-22 14:11:42Z,u01, 98,40,movements,el-ex, rt, d,294763.45398779167, 1.339143800130295, -0.435366126196016, 0.3558347676611043, 0.003822050988674164, -0.014718511141836643, 0.0023969681933522224, 0.8824959993362427, 0.42174240946769714, -0.20816947519779205, -0.00870126485824585, 0.0008955895900726318, 0.003656163811683655, -0.27391522540165864, 0.5664677518542974, 0.7772208230223008,0.0035684572011321913,0.8773040771484375,0.425201416015625,-0.2037506103515625
20220122-1411,2022-01-22 14:11:42Z,u01, 99,40,movements,el-ex, rt, d,294763.4789327917, 1.3388891649825927, -0.43574181078595964, 0.3560727458071481, -0.021124910563230515, -0.013493322767317295, -0.0008330466225743294, 0.8822886347770691, 0.4220830202102661, -0.20835773646831512, 0.014089047908782959, 0.010915696620941162, 0.007598057389259338, -0.274119252567742, 0.5662859402266816, 0.7772813023125167,0.0035781639852286995,0.8963775634765625,0.4329986572265625,-0.2007598876953125
20220122-1411,2022-01-22 14:11:42Z,u01, 100,40,movements,el-ex, rt, d,294763.5038777917, 1.3384564592849029, -0.43629271189845126, 0.3569837492387712, -0.05555485561490059, -0.04717765003442764, -0.013142043724656105, 0.8819721341133118, 0.42258235812187195, -0.2086859494447708, 0.01872396469116211, 0.01154559850692749, 0.005179673433303833, -0.2745772935476233, 0.5659190152596473, 0.7773858352419425,0.0038191213102278243,0.895660400390625,0.434417724609375,-0.20404052734375
20220122-1411,2022-01-22 14:11:42Z,u01, 101,40,movements,el-ex, rt, d,294763.5288227917, 1.3380575451425296, -0.4373888688874734, 0.358810109797923, -0.08255445212125778, -0.04113507270812988, -0.039287228137254715, 0.881437361240387, 0.42357558012008667, -0.20893076062202454, -0.009992539882659912, 0.010811686515808105, 0.003715530037879944, -0.2754929213666442, 0.5653656077840037, 0.7774622205391206,0.004240695052444676,0.8714447021484375,0.43438720703125,-0.2052154541015625
20220122-1411,2022-01-22 14:11:42Z,u01, 102,40,movements,el-ex, rt, d,294763.55376779166, 1.3383604732154202, -0.43909411228635825, 0.3604961649622157, -0.05520128831267357, -0.015439361333847046, -0.05328353866934776, 0.880796492099762, 0.42511969804763794, -0.2084970623254776, -0.015378892421722412, 0.011846303939819336, 0.008103623986244202, -0.2765917360387896, 0.5650207792866377, 0.7773223321934828,0.0043203540759937376,0.8687286376953125,0.436981201171875,-0.200408935546875
20220122-1411,2022-01-22 14:11:42Z,u01, 103,40,movements,el-ex, rt, d,294763.57871179166, 1.338897351160484, -0.44059886530755926, 0.36152610344647346, -0.029739469289779663, -0.013381270691752434, -0.04638861492276192, 0.88028484582901, 0.4264812171459198, -0.20787692070007324, 0.005808591842651367, 0.005785137414932251, -0.00014594197273254395, -0.27743198889912224, 0.5648832005275543, 0.7771237403404068,0.0041749841073699945,0.8860931396484375,0.4322662353515625,-0.2080230712890625
20220122-1411,2022-01-22 14:11:42Z,u01, 104,40,movements,el-ex, rt, d,294763.6036567917, 1.3392170774208667, -0.4417662317313984, 0.361850615504671, -0.012157414108514786, 0.00896424800157547, -0.026080146431922913, 0.8798661231994629, 0.42753681540489197, -0.20748105645179749, 0.009370565414428711, 0.004866898059844971, 0.0058363378047943115, -0.2779493243490009, 0.5648040751746939, 0.7769978723941711,0.0038909655058667614,0.89154052734375,0.431304931640625,-0.1988067626953125
20220122-1411,2022-01-22 14:11:42Z,u01, 105,40,movements,el-ex, rt, d,294763.6286017917, 1.3398291023824012, -0.4426904831663543, 0.36209645567214876, -0.008561115711927414, 0.03081701695919037, -0.015966325998306274, 0.8796078562736511, 0.4283721446990967, -0.20685195922851562, 0.009232044219970703, 0.002398848533630371, 0.010441064834594727, -0.27835628531351586, 0.5648821093971168, 0.776796740720496,0.0036117011739873472,0.8888397216796875,0.4307708740234375,-0.1964111328125
20220122-1411,2022-01-22 14:11:42Z,u01, 106,40,movements,el-ex, rt, d,294763.6535467917, 1.3408365280709453, -0.4431401014560047, 0.36140320166658024, 0.06259945034980774, 0.07008019834756851, -0.019400006160140038, 0.8796281814575195, 0.42877838015556335, -0.20592179894447327, 0.002345263957977295, 0.006707578897476196, -0.00876915454864502, -0.27832564887253564, 0.565308706705645, 0.7764997012281035,0.0030613307953795132,0.8815460205078125,0.4349365234375,-0.2157440185546875
20220122-1411,2022-01-22 14:11:42Z,u01, 107,40,movements,el-ex, rt, d,294763.6784917917, 1.3417540927047324, -0.442981473068566, 0.358822245898851, 0.1155422255396843, 0.06894475966691971, -0.00873311422765255, 0.8798828721046448, 0.4286350607872009, -0.20513001084327698, 0.006225645542144775, -0.006027579307556152, -0.013619765639305115, -0.2775391371255126, 0.566045073287203, 0.7762481397680523,0.0019816594622172334,0.8861083984375,0.422607421875,-0.21875
20220122-1411,2022-01-22 14:11:42Z,u01, 108,40,movements,el-ex, rt, d,294763.70343679166, 1.3422905036514279, -0.44248937390211585, 0.3560924486369518, 0.093690425157547, 0.04461298882961273, 0.002154621295630932, 0.8801982402801514, 0.4281904101371765, -0.20470577478408813, -0.002375185489654541, -0.01617252826690674, -0.011190593242645264, -0.2765874426040602, 0.5666978886762166, 0.7761134701847947,0.001002360915357825,0.87396240234375,0.41241455078125,-0.216949462890625
20220122-1411,2022-01-22 14:11:42Z,u01, 109,40,movements,el-ex, rt, d,294763.72838079167, 1.3420288295179237, -0.4418854586768997, 0.3536477012856244, 0.09903471916913986, 0.013741627335548401, 0.01071668416261673, 0.8803961873054504, 0.4276445806026459, -0.20499467849731445, -0.0025579333305358887, -0.011216938495635986, -0.02710650861263275, -0.2756746345268816, 0.5670151295595008, 0.7762070406174766,0.0002791862427051761,0.877838134765625,0.4164276123046875,-0.2321014404296875
20220122-1411,2022-01-22 14:11:42Z,u01, 110,40,movements,el-ex, rt, d,294763.7533257917, 1.3407047648959463, -0.44085572340893386, 0.3510042252069722, 0.0842052698135376, -0.01308739185333252, 0.02181188017129898, 0.8805524110794067, 0.4267135262489319, -0.206260547041893, 0.007753431797027588, -0.005357265472412109, -0.0205763578414917, -0.27454997239066037, 0.5670026816577501, 0.7766147262547467,-0.00024199435495231292,0.8887939453125,0.4211883544921875,-0.2231597900390625
20220122-1411,2022-01-22 14:11:42Z,u01, 111,40,movements,el-ex, rt, d,294763.7782707917, 1.3391052261394032, -0.4398353998163474, 0.34930754034983863, 0.032440878450870514, -0.017153507098555565, 0.006809227168560028, 0.8806444406509399, 0.42579054832458496, -0.20776857435703278, -0.0013872385025024414, -0.0038544535636901855, -0.009928315877914429, -0.2736971170931618, 0.5667500306227046, 0.7770998477521458,-0.00036220638547168615,0.8792572021484375,0.42193603515625,-0.2176971435546875
20220122-1411,2022-01-22 14:11:43Z,u01, 112,40,movements,el-ex, rt, d,294763.8032157917, 1.3380694758105511, -0.43950446005548477, 0.3485640895828151, 0.005834168754518032, -0.019806014373898506, -0.005909496918320656, 0.8805661201477051, 0.425491064786911, -0.20871314406394958, 0.007877171039581299, -0.00257834792137146, -0.0030023157596588135, -0.273365808410257, 0.5664932157744914, 0.7774038238274079,-0.0004058501162344519,0.8906402587890625,0.42169189453125,-0.208892822265625
20220122-1411,2022-01-22 14:11:43Z,u01, 113,40,movements,el-ex, rt, d,294763.82816079166, 1.3364325160534145, -0.4393142490172184, 0.3483473944410989, -0.013171913102269173, -0.03666602075099945, 0.0022956347092986107, 0.880301833152771, 0.4253189265727997, -0.21017307043075562, 0.006310224533081055, -0.008494526147842407, 0.007322981953620911, -0.2732352359038882, 0.5659116296523072, 0.7778731280609573,-0.00020695397665693172,0.8866119384765625,0.4168243408203125,-0.202850341796875
20220122-1411,2022-01-22 14:11:43Z,u01, 114,40,movements,el-ex, rt, d,294763.85310479166, 1.3354274064526823, -0.438890525819371, 0.3482907589853482, 0.017225241288542747, -0.015363194979727268, 0.015321088954806328, 0.8802652955055237, 0.42493540048599243, -0.211099773645401, -0.002350747585296631, -0.0037317276000976562, 0.004511252045631409, -0.27306432465011266, 0.5655846424004196, 0.7781709490699689,4.070551649548726e-05,0.8779754638671875,0.4244232177734375,-0.205535888671875
20220122-1411,2022-01-22 14:11:43Z,u01, 115,40,movements,el-ex, rt, d,294763.8780497917, 1.334916124264763, -0.43799389032873487, 0.3477464438560324, 0.019255470484495163, -0.010316572152078152, 0.03509153053164482, 0.8805273771286011, 0.4241235852241516, -0.21163876354694366, 0.010799646377563477, -9.700655937194824e-05, 0.016982629895210266, -0.2725823656491094, 0.5655788825960594, 0.7783440561768653,0.00017871080320913668,0.891326904296875,0.4240264892578125,-0.1946563720703125
20220122-1411,2022-01-22 14:11:43Z,u01, 116,40,movements,el-ex, rt, d,294763.9029947917, 1.3348322242830049, -0.437163826804839, 0.3482749361095877, -0.0377497598528862, -0.01803814247250557, 0.02696649357676506, 0.8808515071868896, 0.42337173223495483, -0.21179485321044922, 0.0074083805084228516, 0.0003954172134399414, 0.020327836275100708, -0.2724280680079335, 0.5655842286875182, 0.7783938985049187,0.0006550473041649907,0.887786865234375,0.4249114990234375,-0.190704345703125
20220122-1411,2022-01-22 14:11:43Z,u01, 117,40,movements,el-ex, rt, d,294763.9279397917, 1.3354170925130209, -0.43686891782971254, 0.349527031991584, -0.029154974967241287, 0.002123519778251648, 0.015494327992200851, 0.8810967803001404, 0.42310452461242676, -0.2113087773323059, -0.0033195018768310547, 0.011450588703155518, 0.012944698333740234, -0.2726745247253503, 0.5656803101247923, 0.7782372948684546,0.0011547502813785138,0.877777099609375,0.4345550537109375,-0.1983642578125
20220122-1411,2022-01-22 14:11:43Z,u01, 118,40,movements,el-ex, rt, d,294763.9528847917, 1.3359525225651885, -0.43677556993343464, 0.34981845744629214, 0.01697833277285099, 0.011014282703399658, 0.0013929568231105804, 0.8812479972839355, 0.4230199456214905, -0.21084612607955933, -0.005652904510498047, 0.01226755976676941, 0.010147541761398315, -0.2727231708872533, 0.5658612953089817, 0.7780884239294166,0.0012242726255895509,0.8750457763671875,0.4339141845703125,-0.19854736328125
20220122-1411,2022-01-22 14:11:43Z,u01, 119,40,movements,el-ex, rt, d,294763.97782979166, 1.3369420526876534, -0.4367596056800343, 0.34981587696608807, 0.0048791589215397835, 0.015830809250473976, -0.009098099544644356, 0.8814629316329956, 0.42300549149513245, -0.20997560024261475, -0.005715131759643555, 0.006392180919647217, 0.009353280067443848, -0.27271715891947645, 0.5662486658582027, 0.7778089483401412,0.0010933458997379186,0.8757476806640625,0.4293975830078125,-0.20062255859375
20220122-1411,2022-01-22 14:11:43Z,u01, 120,40,movements,el-ex, rt, d,294764.00277379167, 1.33787760700188, -0.437127587277514, 0.3497282147557015, 0.011715793050825596, 0.03112221322953701, -0.016378581523895264, 0.8815075159072876, 0.4233388900756836, -0.2091149240732193, 0.0014272332191467285, 0.005524724721908569, 0.002053380012512207, -0.2728272479397198, 0.5665755290633014, 0.7775326595388101,0.0008165725761618559,0.8850860595703125,0.430938720703125,-0.2078857421875
20220122-1411,2022-01-22 14:11:43Z,u01, 121,40,movements,el-ex, rt, d,294764.0277187917, 1.3388701378669123, -0.4381491756330258, 0.34939883464417176, 0.016353022307157516, 0.03431987017393112, -0.031790297478437424, 0.8812931776046753, 0.42426419258117676, -0.20814037322998047, 0.007653415203094482, -0.0024196505546569824, -0.003208860754966736, -0.27310734425836936, 0.5668705280022632, 0.7772195818830873,0.00023334408393366202,0.888946533203125,0.421844482421875,-0.2113494873046875
20220122-1411,2022-01-22 14:11:43Z,u01, 122,40,movements,el-ex, rt, d,294764.0526637917, 1.3395467921552986, -0.4391057057636822, 0.348642353330933, 0.020491909235715866, 0.02982245944440365, -0.03764672204852104, 0.8810383677482605, 0.4251301884651184, -0.20745086669921875, 0.0020335912704467773, -0.008244752883911133, -0.0033643096685409546, -0.2732420930621531, 0.5671096217355077, 0.77699763953173,-0.0004525209689012488,0.8816375732421875,0.4139556884765625,-0.211700439453125
20220122-1411,2022-01-22 14:11:43Z,u01, 123,40,movements,el-ex, rt, d,294764.0776087917, 1.3401208835056577, -0.439811347808705, 0.3481761727566018, 0.009462193585932255, 0.022309480234980583, -0.020359542220830917, 0.8808650970458984, 0.42576876282691956, -0.20687641203403473, -0.004613757133483887, -0.016527950763702393, -0.007005810737609863, -0.273367234193616, 0.5673025216371326, 0.7768123797821992,-0.0009330741239729212,0.876251220703125,0.40924072265625,-0.2138824462890625
20220122-1411,2022-01-22 14:11:43Z,u01, 124,40,movements,el-ex, rt, d,294764.10255379166, 1.3406269127544088, -0.44011317438811587, 0.34793286622463393, -0.0029910141602158546, 0.0180771853774786, -0.00852658599615097, 0.8808445334434509, 0.4260418713092804, -0.20640131831169128, 0.003020942211151123, -0.007950931787490845, -0.013157188892364502, -0.27340806943789736, 0.5674921739193501, 0.7766591449502989,-0.0011912958906687976,0.88592529296875,0.4199676513671875,-0.2209014892578125
20220122-1411,2022-01-22 14:11:43Z,u01, 125,40,movements,el-ex, rt, d,294764.12749779166, 1.3405373852745701, -0.43989621632018655, 0.34798649601524145, -0.009391389787197113, -0.0083030229434371, -0.0041123959235847, 0.8809161186218262, 0.42584556341171265, -0.2065012902021408, 0.0008285045623779297, 0.0020720958709716797, -0.01255372166633606, -0.27334416032838804, 0.5674789192014731, 0.7766915445061817,-0.001090232728532703,0.881744384765625,0.42791748046875,-0.21905517578125
20220122-1411,2022-01-22 14:11:43Z,u01, 126,40,movements,el-ex, rt, d,294764.1524427917, 1.3402924864453187, -0.4397355254553166, 0.34825489439541807, -0.025548055768013, -0.012446501292288303, -0.0032035927288234234, 0.880932092666626, 0.4257001578807831, -0.2067326456308365, -0.0006371140480041504, 0.005910009145736694, -0.011010050773620605, -0.2733618019635101, 0.5673684906875255, 0.7767662132486133,-0.000902185166110292,0.8824462890625,0.431304931640625,-0.21490478515625
20220122-1411,2022-01-22 14:11:43Z,u01, 127,40,movements,el-ex, rt, d,294764.1773877917, 1.339826482397378, -0.4398866867074602, 0.3493243947399808, -0.08134497702121735, -0.03198285400867462, -0.010857450775802135, 0.8807729482650757, 0.4258369505405426, -0.2071283906698227, 0.014185667037963867, 0.009008079767227173, -0.002527102828025818, -0.2737204385534824, 0.5670210982002724, 0.7768939143693852,-0.0004704022849166267,0.89495849609375,0.434844970703125,-0.20965576171875
20220122-1411,2022-01-22 14:11:43Z,u01, 128,40,movements,el-ex, rt, d,294764.2023327917, 1.3394389884712752, -0.4406315304391389, 0.3513702951597005, -0.07378502935171127, -0.03601348027586937, -0.021296976134181023, 0.8803836703300476, 0.426510751247406, -0.20739687979221344, 0.012179374694824219, 0.01729118824005127, 0.0019985437393188477, -0.27457198693683715, 0.5664907630779566, 0.7769804223268038,0.00014418455241782535,0.8873748779296875,0.4464569091796875,-0.2066650390625
20220122-1411,2022-01-22 14:11:43Z,u01, 129,40,movements,el-ex, rt, d,294764.2272777917, 1.3388643582279904, -0.4415470909136077, 0.35200222523224894, 0.007530302740633488, 0.004049185663461685, -0.0361739918589592, 0.8798840045928955, 0.42733868956565857, -0.20781292021274567, -0.006318151950836182, 0.028136223554611206, -0.005352139472961426, -0.2750848173207642, 0.5660581995399572, 0.7771143381922525,0.0001819809995811661,0.873565673828125,0.455474853515625,-0.213165283203125
20220122-1411,2022-01-22 14:11:43Z,u01, 130,40,movements,el-ex, rt, d,294764.25222179166, 1.3387777392945612, -0.44211894358937176, 0.35062864860738685, 0.05185355618596077, 0.03421161323785782, -0.033928148448467255, 0.8796280026435852, 0.42785561084747314, -0.20783290266990662, -0.0005995035171508789, 0.01451200246810913, -0.00134962797164917, -0.2749046470751635, 0.5661368952799868, 0.7771206089730113,-0.0005188600732383142,0.8824462890625,0.4387664794921875,-0.204498291015625
20220122-1411,2022-01-22 14:11:43Z,u01, 131,40,movements,el-ex, rt, d,294764.27716625005, 1.3389957069968035, -0.4428380577818018, 0.3498195098710248, -0.009487031027674675, 0.0040300097316503525, -0.03172358497977257, 0.8793736696243286, 0.42850548028945923, -0.20757044851779938, 0.004064679145812988, -0.00649300217628479, 0.010549157857894897, -0.2749378333646275, 0.5662366706026887, 0.7770356185899143,-0.0010883301612104046,0.8834381103515625,0.4220123291015625,-0.197021484375
20220122-1411,2022-01-22 14:11:43Z,u01, 132,40,movements,el-ex, rt, d,294764.30211125, 1.339042996197925, -0.44411765974409845, 0.35017455767584355, -0.026369208469986916, -0.002657986246049404, -0.03287274017930031, 0.8788489103317261, 0.4296613037586212, -0.20740270614624023, -0.0015752911567687988, -0.00598570704460144, 0.00310303270816803, -0.27550506253210594, 0.5660349901444341, 0.7769810787890763,-0.0013575677727262758,0.874664306640625,0.4215850830078125,-0.2050323486328125
20220122-1411,2022-01-22 14:11:43Z,u01, 133,40,movements,el-ex, rt, d,294764.32705625, 1.3390858883859298, -0.44563558010237825, 0.3505071986531136, -0.020411450415849686, 0.012653060257434845, -0.02885429374873638, 0.8782221078872681, 0.4310314655303955, -0.20721501111984253, -0.006227970123291016, -0.011902987957000732, 0.008805230259895325, -0.2761525954527457, 0.5658022947517607, 0.7769200539786968,-0.0017095158361987717,0.8719940185546875,0.41912841796875,-0.1984100341796875
20220122-1411,2022-01-22 14:11:43Z,u01, 134,40,movements,el-ex, rt, d,294764.35200125, 1.3398734251291908, -0.44628177351777887, 0.3507406713517362, -0.006834887899458408, 0.018090233206748962, -0.01603643223643303, 0.8781136870384216, 0.4316144585609436, -0.20645950734615326, 0.00714033842086792, -0.018772602081298828, 0.011986508965492249, -0.2764534569441016, 0.5659891597897225, 0.7766763532786444,-0.001930022160269551,0.8886566162109375,0.412353515625,-0.1952667236328125
20220122-1411,2022-01-22 14:11:43Z,u01, 135,40,movements,el-ex, rt, d,294764.37694625003, 1.3405812034376607, -0.4463456767810207, 0.351034618046945, -0.01632329821586609, 0.016547266393899918, -0.0057427166029810905, 0.8782327771186829, 0.4316721260547638, -0.20583167672157288, 0.004320502281188965, -0.02180570363998413, 0.01087033748626709, -0.27655924315963143, 0.5662147538218919, 0.7764742789441027,-0.0019337491229795556,0.8825531005859375,0.4098663330078125,-0.1949615478515625
20220122-1411,2022-01-22 14:11:43Z,u01, 136,40,movements,el-ex, rt, d,294764.40189025004, 1.341345364825068, -0.4461558751377212, 0.35140127093659845, -0.016369670629501343, 0.03375920653343201, 0.01374356634914875, 0.878469705581665, 0.4315009117126465, -0.2051791548728943, 0.0035954713821411133, -0.017361968755722046, 0.014444500207901001, -0.27659321665423775, 0.5664862003145118, 0.7762644574923967,-0.001837583328800907,0.8815460205078125,0.4140625,-0.189849853515625
20220122-1411,2022-01-22 14:11:43Z,u01, 137,40,movements,el-ex, rt, d,294764.42683525, 1.3427315573933454, -0.4455738400876492, 0.3519009649590291, -0.0011462424881756306, 0.043267495930194855, 0.016541216522455215, 0.8789977431297302, 0.4309757649898529, -0.2040179818868637, 0.0020755529403686523, -0.010901153087615967, 0.006538957357406616, -0.27652175491020015, 0.5670332711146003, 0.7758908157025266,-0.0016527986314993082,0.881072998046875,0.420074462890625,-0.197479248046875
20220122-1411,2022-01-22 14:11:43Z,u01, 138,40,movements,el-ex, rt, d,294764.45178025, 1.3439539597031231, -0.4447290424869555, 0.35179885626278923, 0.020591976121068, 0.046560823917388916, 0.016517046838998795, 0.8796008229255676, 0.4302133023738861, -0.20302513241767883, -0.005287289619445801, -0.008826524019241333, -0.002418994903564453, -0.27618445460962293, 0.5676350795042765, 0.7755708955866819,-0.001596136152525185,0.8734130859375,0.4219818115234375,-0.2068939208984375
20220122-1411,2022-01-22 14:11:43Z,u01, 139,40,movements,el-ex, rt, d,294764.47672525, 1.3453133276358804, -0.4435974278800726, 0.35119796558157973, 0.03302387893199921, 0.0527859628200531, 0.019042525440454483, 0.8803499341011047, 0.4291914701461792, -0.2019379436969757, -0.0013367533683776855, -0.004966557025909424, -0.0027432292699813843, -0.2756011120705464, 0.5683969149446786, 0.7752202135143766,-0.001661141029708768,0.8790130615234375,0.424224853515625,-0.204681396484375
20220122-1411,2022-01-22 14:11:43Z,u01, 140,40,movements,el-ex, rt, d,294764.50167025, 1.3462825776409442, -0.44267785717723446, 0.35103945962136873, -0.0006766607984900475, 0.010674530640244484, 0.0280749648809433, 0.8809296488761902, 0.4283607304096222, -0.2011723518371582, 0.01489877700805664, -0.004074782133102417, -0.0021355152130126953, -0.2752208853432533, 0.5689176463431869, 0.774973460345324,-0.0015669816022459981,0.89813232421875,0.4242095947265625,-0.20654296875
20220122-1411,2022-01-22 14:11:43Z,u01, 141,40,movements,el-ex, rt, d,294764.52661425003, 1.3464417348543356, -0.4418585605728991, 0.35178235941215785, -0.03508862853050232, -0.00844976119697094, 0.0239701047539711, 0.8813035488128662, 0.4276202619075775, -0.20111016929149628, 0.01283109188079834, 0.008399724960327148, -0.013748645782470703, -0.2751342292708705, 0.5689868806618944, 0.7749543357804625,-0.0010433776838430497,0.894134521484375,0.4360198974609375,-0.2148590087890625
20220122-1411,2022-01-22 14:11:43Z,u01, 142,40,movements,el-ex, rt, d,294764.55155925005, 1.3464671554406045, -0.4414826456893728, 0.3525889683371852, -0.0201776921749115, 0.005000066012144089, 0.01612955890595913, 0.8814651966094971, 0.4272804260253906, -0.20112347602844238, 0.005848705768585205, 0.010280698537826538, -0.015490040183067322, -0.2752270402443051, 0.5689361430992057, 0.7749589901863422,-0.0006161361155708756,0.8853607177734375,0.437896728515625,-0.2137603759765625
20220122-1411,2022-01-22 14:11:43Z,u01, 143,40,movements,el-ex, rt, d,294764.57650425, 1.3468322832019262, -0.4411248931378172, 0.3527273955076416, 0.01234683021903038, 0.015802647918462753, 0.006108882836997509, 0.8816876411437988, 0.4269569516181946, -0.20083557069301605, 0.005855262279510498, 0.013213425874710083, -0.008865714073181152, -0.27513626249583273, 0.5691065363567919, 0.7748662413923894,-0.0005002060967457256,0.887542724609375,0.4401702880859375,-0.2097015380859375
20220122-1411,2022-01-22 14:11:43Z,u01, 144,40,movements,el-ex, rt, d,294764.60144925, 1.346608545554146, -0.44078648446226304, 0.35193291848460256, 0.040295738726854324, 0.006041562184691429, -0.004188296385109425, 0.8817835450172424, 0.42665091156959534, -0.20106495916843414, 0.0013495683670043945, 0.007995784282684326, -0.01016223430633545, -0.2747872101131401, 0.5691744131903652, 0.77494013740203,-0.000670822197374632,0.8817596435546875,0.43511962890625,-0.2125244140625
20220122-1411,2022-01-22 14:11:43Z,u01, 145,40,movements,el-ex, rt, d,294764.62639425, 1.3458478265506473, -0.44076348995491993, 0.3503729490834391, 0.05182766169309616, 0.01565564051270485, -0.005924344528466463, 0.8816399574279785, 0.4266301095485687, -0.2017378956079483, -0.0059226155281066895, 0.00282856822013855, -0.011579751968383789, -0.274335265846961, 0.569096843168438, 0.7751566742897028,-0.001163672799347093,0.8757171630859375,0.4294586181640625,-0.21331787109375
20220122-1411,2022-01-22 14:11:43Z,u01, 146,40,movements,el-ex, rt, d,294764.65133825, 1.3454812220717314, -0.440812866546098, 0.34918560973934215, 0.03200282156467438, 0.013181030750274658, 0.0010041352361440659, 0.8815454244613647, 0.4266747534275055, -0.2020563930273056, -0.0061942338943481445, -0.0016715526580810547, -0.005356103181838989, -0.2740156223108777, 0.5691109243964364, 0.7752586522322862,-0.0015891476162288587,0.875244140625,0.4210968017578125,-0.2066650390625
20220122-1411,2022-01-22 14:11:43Z,u01, 147,40,movements,el-ex, rt, d,294764.67628325004, 1.3449562205476697, -0.4408374629754458, 0.3484416621055683, 0.024325992912054062, -0.010504057630896568, 0.008095335215330124, 0.8814289569854736, 0.4266970157623291, -0.2025168091058731, -0.0032091736793518066, 0.002456486225128174, -0.004422664642333984, -0.27381335447287847, 0.5690060102150112, 0.7754065910421843,-0.0018133833807894018,0.8782196044921875,0.4291534423828125,-0.206939697265625
20220122-1411,2022-01-22 14:11:43Z,u01, 148,40,movements,el-ex, rt, d,294764.70122825, 1.3439818626361815, -0.44055346702637177, 0.34754754249268943, 0.02872839942574501, -0.007682039402425289, 0.010303228162229061, 0.8813491463661194, 0.42644014954566956, -0.20340275764465332, -0.006150662899017334, 0.0038577616214752197, -0.0008969157934188843, -0.27345652241794516, 0.5687883177003865, 0.77569178713536,-0.0019376214225783617,0.873870849609375,0.430633544921875,-0.203125
20220122-1411,2022-01-22 14:11:43Z,u01, 149,40,movements,el-ex, rt, d,294764.72617325, 1.3434636865563814, -0.44026852343011624, 0.34678899442144023, 0.02028045244514942, 0.021616727113723755, 0.010648640803992748, 0.8813620209693909, 0.4261823892593384, -0.20388682186603546, -0.005659937858581543, 0.008464306592941284, 0.003417074680328369, -0.273137484334111, 0.5687288517000787, 0.7758474694524289,-0.0020715888190442344,0.875701904296875,0.4346466064453125,-0.200469970703125
20220122-1411,2022-01-22 14:11:43Z,u01, 150,40,movements,el-ex, rt, d,294764.75111825, 1.3436834684698817, -0.4400441643426506, 0.3460248323746136, 0.03190305083990097, 0.014459282159805298, 0.00027516111731529236, 0.8815000057220459, 0.4259794354438782, -0.20371463894844055, 0.012436330318450928, 0.01525905728340149, 0.004908084869384766, -0.27283811596462393, 0.5689481906309872, 0.7757912920449141,-0.0023275875115542632,0.896240234375,0.4421844482421875,-0.1983795166015625
20220122-1411,2022-01-22 14:11:43Z,u01, 151,40,movements,el-ex, rt, d,294764.77606325, 1.3434253285583, -0.4401945299988476, 0.3455680531860211, -0.008367537520825863, -0.005630007945001125, -0.007044802885502577, 0.8813849687576294, 0.4261154532432556, -0.20392774045467377, 0.005181372165679932, 0.010057121515274048, 0.0061435699462890625, -0.2727633038122449, 0.5688904175602654, 0.7758593904971522,-0.0025167562730922244,0.886566162109375,0.4361724853515625,-0.197784423828125
20220122-1411,2022-01-22 14:11:44Z,u01, 152,40,movements,el-ex, rt, d,294764.80100725003, 1.3435213464444948, -0.440731448333448, 0.3461278963743397, -0.0315273180603981, -0.003631305880844593, -0.013496577739715576, 0.881181538105011, 0.4266011416912079, -0.203791543841362, -0.00778353214263916, 0.009281516075134277, 0.01119530200958252, -0.2731181325649369, 0.5687800254150733, 0.7758156189060705,-0.002481191263838445,0.872222900390625,0.4365386962890625,-0.1938934326171875
20220122-1411,2022-01-22 14:11:44Z,u01, 153,40,movements,el-ex, rt, d,294764.82595225004, 1.344143911710932, -0.4414757291345106, 0.34668456403306996, -0.00020364951342344284, 0.013803279027342796, -0.01874280348420143, 0.8809984922409058, 0.4272741675376892, -0.2031714767217636, -0.003740072250366211, 0.016802430152893066, 0.005066871643066406, -0.27354688577600345, 0.5688465191122845, 0.7756153836952215,-0.0025840218156876205,0.87725830078125,0.4440765380859375,-0.1981048583984375
20220122-1411,2022-01-22 14:11:44Z,u01, 154,40,movements,el-ex, rt, d,294764.85089725, 1.3446489998359454, -0.44189854561221364, 0.3463293183178959, 0.02127271331846714, 0.01185297966003418, -0.01051423605531454, 0.8809249401092529, 0.4276564121246338, -0.20268595218658447, 0.0045275092124938965, 0.018617480993270874, 0.006931200623512268, -0.2735991417154445, 0.5690347395101061, 0.7754576830312951,-0.0029236313984499773,0.887359619140625,0.4465789794921875,-0.198089599609375
20220122-1411,2022-01-22 14:11:44Z,u01, 155,40,movements,el-ex, rt, d,294764.87584225, 1.3452044633444251, -0.4425593324962092, 0.34592369756143954, 0.0003655003383755684, 0.024615779519081116, -0.032196760177612305, 0.8807618021965027, 0.4282536208629608, -0.20213335752487183, 0.00798654556274414, 0.01007041335105896, 0.005478262901306152, -0.2737234676633311, 0.569217697408339, 0.7752777563499784,-0.0033644387354587746,0.8887481689453125,0.438323974609375,-0.1966552734375
20220122-1411,2022-01-22 14:11:44Z,u01, 156,40,movements,el-ex, rt, d,294764.90078725, 1.3460536745401466, -0.44388625097720424, 0.34612205748341174, -0.016352824866771698, 0.02960800565779209, -0.04406074434518814, 0.8803783655166626, 0.4294523298740387, -0.20125851035118103, 0.008186817169189453, 0.0044924914836883545, -0.0014389753341674805, -0.2742613855605724, 0.5693429880263194, 0.7749934774362879,-0.003820861968651723,0.8863525390625,0.4342498779296875,-0.205169677734375
20220122-1411,2022-01-22 14:11:44Z,u01, 157,40,movements,el-ex, rt, d,294764.92573125, 1.3469170817634994, -0.44561007841675243, 0.3461645627422502, 0.0081074433401227, 0.025683173909783363, -0.05775272101163864, 0.879828691482544, 0.4310084581375122, -0.20033365488052368, 0.00011533498764038086, -0.0011530518531799316, -0.011091932654380798, -0.2748987235337329, 0.5694417137807906, 0.7746916291341337,-0.004464884956281223,0.87994384765625,0.4298553466796875,-0.21142578125
20220122-1411,2022-01-22 14:11:44Z,u01, 158,40,movements,el-ex, rt, d,294764.95067625004, 1.3470606973270245, -0.4469593051736847, 0.34515328510501175, 0.0379914715886116, 0.01481461338698864, -0.05280023813247681, 0.8792895674705505, 0.4322255551815033, -0.200078085064888, 0.00044083595275878906, -0.009282350540161133, -0.010203063488006592, -0.27510100335199356, 0.5694562300431877, 0.7746038623982825,-0.005300620897742636,0.8826141357421875,0.4200897216796875,-0.2116241455078125
20220122-1411,2022-01-22 14:11:44Z,u01, 159,40,movements,el-ex, rt, d,294764.97562125, 1.3468083305060325, -0.4478931457391385, 0.344293427677702, 0.0005081798881292343, -0.016536317765712738, -0.035242486745119095, 0.8788451552391052, 0.4330674707889557, -0.20021024346351624, 0.006408989429473877, -0.02095794677734375, -0.010101467370986938, -0.27519642282026224, 0.5693520918797331, 0.7746422838449121,-0.005892564958958957,0.88525390625,0.412109375,-0.2103118896484375
20220122-1411,2022-01-22 14:11:44Z,u01, 160,40,movements,el-ex, rt, d,294765.00056625, 1.346313317476743, -0.44868995190208805, 0.34459281348183096, -0.02891492284834385, -0.02288416028022766, -0.024308543652296066, 0.8784092664718628, 0.4337855279445648, -0.20056839287281036, 0.007333159446716309, -0.01787659525871277, -0.011589616537094116, -0.27557280776008886, 0.5690126830101906, 0.7747573555432699,-0.00595892920159119,0.8876495361328125,0.418609619140625,-0.2122650146484375
20220122-1411,2022-01-22 14:11:44Z,u01, 161,40,movements,el-ex, rt, d,294765.02551125, 1.3454827238462066, -0.44915119347534405, 0.3448830647869732, -0.0184292271733284, -0.023599153384566307, -0.0282110758125782, 0.8780472874641418, 0.43420106172561646, -0.20125320553779602, 0.01132667064666748, -0.00924372673034668, -0.006571292877197266, -0.2758255344659328, 0.5685891948144659, 0.7749789459435142,-0.005876921570613203,0.889373779296875,0.424957275390625,-0.20782470703125
20220122-1411,2022-01-22 14:11:44Z,u01, 162,40,movements,el-ex, rt, d,294765.05045525, 1.3448600281095837, -0.44939354921287056, 0.3449852350628509, -0.0007601841352880001, -0.0195340383797884, -0.017978079617023468, 0.8778191804885864, 0.4344193637371063, -0.20177632570266724, 0.010273098945617676, -0.010514825582504272, -0.0016689002513885498, -0.27594455139565527, 0.5683013626198754, 0.7751480227821916,-0.005827568712918507,0.886932373046875,0.4234619140625,-0.2048492431640625
20220122-1411,2022-01-22 14:11:44Z,u01, 163,40,movements,el-ex, rt, d,294765.07540025003, 1.344172927965133, -0.4489450289789325, 0.34475059993741375, -0.00042698904871940613, -0.004558751359581947, 0.0027168812230229378, 0.8778700232505798, 0.43401533365249634, -0.20242317020893097, 0.005171477794647217, -0.01056864857673645, -0.002395316958427429, -0.27571669446790703, 0.5681273772741808, 0.7753576303792741,-0.005682934091041925,0.8830413818359375,0.4234466552734375,-0.2048187255859375
20220122-1411,2022-01-22 14:11:44Z,u01, 164,40,movements,el-ex, rt, d,294765.10034525004, 1.3438400082817272, -0.44839908703270254, 0.3448038688235621, -0.008455455303192139, -0.020063607022166252, 0.020000863820314407, 0.8780333995819092, 0.4335234463214874, -0.2027687281370163, 0.009418010711669922, -0.011694103479385376, 0.0021615922451019287, -0.27553404550406413, 0.5680639290616507, 0.7754707923149781,-0.00544501280849552,0.8879547119140625,0.4216766357421875,-0.1996612548828125
20220122-1411,2022-01-22 14:11:44Z,u01, 165,40,movements,el-ex, rt, d,294765.12529025, 1.3433645745818692, -0.44753791084144656, 0.3451671027989082, -0.008391140028834343, -0.028311949223279953, 0.02561427280306816, 0.878300130367279, 0.4327472448348999, -0.20327021181583405, -0.0010417699813842773, -0.004661858081817627, 0.003670245409011841, -0.27532496064837764, 0.5679445922049525, 0.775635518307096,-0.004968442269530415,0.87725830078125,0.4280853271484375,-0.1996002197265625
20220122-1411,2022-01-22 14:11:44Z,u01, 166,40,movements,el-ex, rt, d,294765.15023525, 1.3429890806236005, -0.4467390200581039, 0.34521858126147903, 0.015298211015760899, -0.00368436798453331, 0.02315031737089157, 0.8785604238510132, 0.4320268929004669, -0.20367804169654846, -0.006886601448059082, 0.0006819963455200195, 0.006656736135482788, -0.27504953064110116, 0.5678985232057775, 0.7757690819377356,-0.004646114320593808,0.8748779296875,0.43353271484375,-0.1953125
20220122-1411,2022-01-22 14:11:44Z,u01, 167,40,movements,el-ex, rt, d,294765.17518025, 1.3430020755104555, -0.4457455644890531, 0.34508500913571133, 0.002645532600581646, -0.004206613637506962, 0.02603505179286003, 0.8789806962013245, 0.43113070726394653, -0.2037634551525116, 0.006349682807922363, -0.00246545672416687, 0.008390188217163086, -0.27464970473673456, 0.568054412106946, 0.7757980887512085,-0.004388033022589888,0.8853302001953125,0.4286651611328125,-0.19537353515625
20220122-1411,2022-01-22 14:11:44Z,u01, 168,40,movements,el-ex, rt, d,294765.20012425, 1.343172930109723, -0.44496505855789825, 0.34557272313953347, -0.018688451498746872, -0.0028799613937735558, 0.030663758516311646, 0.8793429732322693, 0.43042632937431335, -0.2036891132593155, 0.004919171333312988, -0.0003725886344909668, 0.008712559938430786, -0.27450357170201567, 0.5681577499590855, 0.7757762811302472,-0.003977435400856211,0.8837127685546875,0.432037353515625,-0.195892333984375
20220122-1411,2022-01-22 14:11:44Z,u01, 169,40,movements,el-ex, rt, d,294765.22506925004, 1.3435624467224432, -0.4444436370432514, 0.346140118078891, -0.00010724365711212158, 0.00179242342710495, 0.020391814410686493, 0.8796408772468567, 0.4299556314945221, -0.20339713990688324, -0.00018513202667236328, 0.007147729396820068, 0.004178643226623535, -0.27447409399790124, 0.5683004517517134, 0.7756838582118969,-0.0036471782932108177,0.87945556640625,0.437103271484375,-0.19921875
20220122-1411,2022-01-22 14:11:44Z,u01, 170,40,movements,el-ex, rt, d,294765.25001425, 1.3438963163627928, -0.4441322995878655, 0.34598744406490806, 0.021155066788196564, 0.014757554978132248, 0.010561620816588402, 0.8798391819000244, 0.42967453598976135, -0.20313355326652527, -0.0064868927001953125, 0.005964010953903198, 0.005150973796844482, -0.2743166954940557, 0.5684923692052967, 0.775598900882366,-0.0036544621295173108,0.871856689453125,0.4358673095703125,-0.2003173828125
20220122-1411,2022-01-22 14:11:44Z,u01, 171,40,movements,el-ex, rt, d,294765.27495962504, 1.344475038619426, -0.4438311198684984, 0.3456126447311774, 0.01372634619474411, 0.012633485719561577, 0.00914754904806614, 0.8800825476646423, 0.42940253019332886, -0.20265334844589233, 0.002180755138397217, 0.0026806294918060303, 0.004365637898445129, -0.27409938361113384, 0.5688082743698176, 0.7754434222612395,-0.0037845921592022935,0.88226318359375,0.4320831298828125,-0.1982879638671875
20220122-1411,2022-01-22 14:11:44Z,u01, 172,40,movements,el-ex, rt, d,294765.299904625, 1.3448216459338758, -0.44381126406618654, 0.345806466343006, -0.01464124582707882, -0.001904178410768509, 0.004676634445786476, 0.8801611661911011, 0.42938461899757385, -0.20235022902488708, 0.006924033164978027, -0.0006735622882843018, 0.0032690763473510742, -0.27414661581784855, 0.5689187295024334, 0.7753459182156751,-0.0037507040351998366,0.8864288330078125,0.428466796875,-0.19683837890625
20220122-1411,2022-01-22 14:11:44Z,u01, 173,40,movements,el-ex, rt, d,294765.324848625, 1.3451374384594268, -0.4441749104877639, 0.3463591070296478, -0.0005908738821744919, 0.00943196751177311, -0.007564984727650881, 0.8800727128982544, 0.42971301078796387, -0.20203730463981628, -0.005560755729675293, 0.008489012718200684, -0.0020335018634796143, -0.27443561428868685, 0.5689168993061217, 0.7752452720804701,-0.003694014309731819,0.87451171875,0.438201904296875,-0.204071044921875
20220122-1411,2022-01-22 14:11:44Z,u01, 174,40,movements,el-ex, rt, d,294765.349793625, 1.3452363059410208, -0.444379916116844, 0.3456581743376892, 0.03720763698220253, 0.018841711804270744, -0.006530879996716976, 0.8800068497657776, 0.42989811301231384, -0.20193059742450714, 0.0017071962356567383, 0.00876164436340332, -0.0011636614799499512, -0.27431063607405687, 0.5690240574914447, 0.7752091169965742,-0.004043670250797438,0.8820648193359375,0.4356842041015625,-0.200714111328125
20220122-1411,2022-01-22 14:11:44Z,u01, 175,40,movements,el-ex, rt, d,294765.374738625, 1.3455057396338994, -0.44436187700193736, 0.34510366979850815, -0.00013204384595155716, 0.003783866763114929, -0.0018288688734173775, 0.8800686597824097, 0.4298818111419678, -0.20169518887996674, 0.006039798259735107, -0.008281439542770386, 0.005040198564529419, -0.2741457394854381, 0.569206921441388, 0.775131784082255,-0.004289884397860322,0.8861083984375,0.421600341796875,-0.1966552734375
20220122-1411,2022-01-22 14:11:44Z,u01, 176,40,movements,el-ex, rt, d,294765.39968362503, 1.345881659620216, -0.4443989442539628, 0.3454743167608284, -0.015708807855844498, 0.0015264395624399185, 0.009272650815546513, 0.8801289796829224, 0.42991527915000916, -0.2013608068227768, 0.0013561248779296875, -0.0006396770477294922, -0.0007263422012329102, -0.27426390912427867, 0.5692968499105664, 0.77502445386083,-0.004209412441477156,0.8831024169921875,0.4304351806640625,-0.20391845703125
20220122-1411,2022-01-22 14:11:44Z,u01, 177,40,movements,el-ex, rt, d,294765.42462862504, 1.3460372458507073, -0.4444669779372955, 0.34591873308878496, -0.01428637932986021, 0.004143327474594116, 0.01159712579101324, 0.8801318407058716, 0.4299767017364502, -0.20121735334396362, -0.002247750759124756, 0.00329667329788208, 0.0025634169578552246, -0.27441483767575314, 0.5692871126277006, 0.7749789000580386,-0.00407991815518588,0.8778839111328125,0.4332733154296875,-0.1986541748046875
20220122-1411,2022-01-22 14:11:44Z,u01, 178,40,movements,el-ex, rt, d,294765.449573625, 1.3464156006121122, -0.44435329256728506, 0.34595679908246846, 0.025601916015148163, 0.01829669624567032, 0.002522403374314308, 0.8802555203437805, 0.429874062538147, -0.20089522004127502, -0.0013338327407836914, 0.01000639796257019, 0.0009747743606567383, -0.27438354290173395, 0.5694436430612764, 0.7748749602663066,-0.004081344615356308,0.8797607421875,0.43951416015625,-0.201873779296875
20220122-1411,2022-01-22 14:11:44Z,u01, 179,40,movements,el-ex, rt, d,294765.474517625, 1.3465603272308841, -0.44413761842192373, 0.34535433809008986, 0.013132495805621147, 0.007512027397751808, -0.006099513731896877, 0.8803749680519104, 0.42967933416366577, -0.20078842341899872, 0.0026360750198364258, 0.0004202723503112793, 0.00042551755905151367, -0.2741332189524381, 0.5696110635383038, 0.7748395038602947,-0.00426679808634528,0.8830108642578125,0.4300994873046875,-0.2003631591796875
20220122-1411,2022-01-22 14:11:44Z,u01, 180,40,movements,el-ex, rt, d,294765.499462625, 1.3466801007004459, -0.4443139193375507, 0.3452768138128753, -0.0023118089884519577, 0.0012949444353580475, -0.00606935378164053, 0.880325198173523, 0.42983850836753845, -0.200666144490242, 0.0009769797325134277, -0.0020582377910614014, -0.0030232369899749756, -0.27417501430112845, 0.5696446134490177, 0.7747995104473225,-0.004368672576053945,0.88116455078125,0.42755126953125,-0.2050323486328125
20220122-1411,2022-01-22 14:11:44Z,u01, 181,40,movements,el-ex, rt, d,294765.524407625, 1.34678934523395, -0.4447166848349135, 0.345270512898494, -0.00577794574201107, -0.0026993323117494583, -0.005644379649311304, 0.8801780939102173, 0.4302021265029907, -0.200531467795372, 0.0027871131896972656, -0.0015674233436584473, -0.0057518333196640015, -0.2743195175356339, 0.5696341514000695, 0.774755113960601,-0.00451275751836383,0.882965087890625,0.4286346435546875,-0.2062835693359375
20220122-1411,2022-01-22 14:11:44Z,u01, 182,40,movements,el-ex, rt, d,294765.54935262504, 1.346663798501799, -0.4450754274521139, 0.34554536268064157, -0.02119125798344612, -0.016775470227003098, -0.01468847505748272, 0.8800023198127747, 0.4305259585380554, -0.20060765743255615, 0.005343198776245117, -0.008696705102920532, -0.0023950189352035522, -0.27452856435907314, 0.5694999905828744, 0.7747797516793099,-0.0045018568374650125,0.8840179443359375,0.42218017578125,-0.2034454345703125
20220122-1411,2022-01-22 14:11:44Z,u01, 183,40,movements,el-ex, rt, d,294765.574297625, 1.3465546704494835, -0.4453318284160556, 0.34613745578141125, -0.01780158467590809, -0.01047549583017826, -0.005415880121290684, 0.8798728585243225, 0.4307573735713959, -0.20067913830280304, 0.0033670663833618164, -0.005891561508178711, -0.0034984946250915527, -0.27479062975853574, 0.569342197622366, 0.7748037813366764,-0.004338103217164269,0.88323974609375,0.42486572265625,-0.2041778564453125
20220122-1411,2022-01-22 14:11:44Z,u01, 184,40,movements,el-ex, rt, d,294765.599241625, 1.3462847958845847, -0.4453932800008735, 0.3462302250524055, -0.004973804112523794, 0.0011105872690677643, -0.0011034240014851093, 0.8797928094863892, 0.4308128356933594, -0.20091068744659424, 0.004362583160400391, -0.004375368356704712, -0.0018631070852279663, -0.2748399709305883, 0.5692166931028565, 0.7748787735696491,-0.0042844022141572125,0.8841552734375,0.425323486328125,-0.20452880859375
20220122-1411,2022-01-22 14:11:44Z,u01, 185,40,movements,el-ex, rt, d,294765.624186625, 1.346343077725629, -0.44520162505668265, 0.3465897242435124, -0.025802087038755417, 0.000428883358836174, -0.0030746287666261196, 0.8798850178718567, 0.4306398630142212, -0.20087780058383942, 0.009260058403015137, -0.005728304386138916, 0.0016745328903198242, -0.2748724557245424, 0.5692154566090659, 0.7748692056479954,-0.004092876940479162,0.8891448974609375,0.4249114990234375,-0.1992034912109375
20220122-1411,2022-01-22 14:11:44Z,u01, 186,40,movements,el-ex, rt, d,294765.649131625, 1.3464752362691326, -0.44501957632468414, 0.3472881532968848, -0.01832582801580429, -0.008145496249198914, 0.0046221064403653145, 0.8799880743026733, 0.4304755628108978, -0.20077897608280182, 0.007554769515991211, -0.006891459226608276, 0.0013468265533447266, -0.2750047447753127, 0.569194962349046, 0.7748389820902816,-0.00378320020322942,0.886474609375,0.4249420166015625,-0.197998046875
20220122-1411,2022-01-22 14:11:44Z,u01, 187,40,movements,el-ex, rt, d,294765.67407662503, 1.346340571012191, -0.4446594120299509, 0.3475650096158556, 0.00530806090682745, -0.0060774190351367, 0.016739357262849808, 0.8801120519638062, 0.43015044927597046, -0.20093195140361786, -0.0005800127983093262, -0.001546233892440796, -0.0007890462875366211, -0.2749528195483236, 0.5691528564978832, 0.7748893957091155,-0.003544204850500443,0.8795318603515625,0.4286041259765625,-0.20172119140625
20220122-1411,2022-01-22 14:11:44Z,u01, 188,40,movements,el-ex, rt, d,294765.69902162504, 1.346311309430215, -0.4439235015747596, 0.3472244422891412, 0.018290473148226738, 0.01680292934179306, 0.022946450859308243, 0.8804145455360413, 0.4294859766960144, -0.20102810859680176, -0.006711363792419434, -0.002056688070297241, -0.0009522438049316406, -0.27458828246117184, 0.5692865887773907, 0.7749208836007425,-0.0034407829427837155,0.8753662109375,0.4290924072265625,-0.2020111083984375
20220122-1411,2022-01-22 14:11:44Z,u01, 189,40,movements,el-ex, rt, d,294765.723966625, 1.346954583494974, -0.44301789933998903, 0.3472580229850569, -0.00443717697635293, 0.010366402566432953, 0.029870204627513885, 0.8809224963188171, 0.42866796255111694, -0.2005479633808136, 0.009229540824890137, 0.0030184388160705566, 0.0004902184009552002, -0.27426738814728757, 0.5696520176384057, 0.7747668081381042,-0.003231299816069899,0.8901519775390625,0.4316864013671875,-0.2000579833984375
20220122-1411,2022-01-22 14:11:44Z,u01, 190,40,movements,el-ex, rt, d,294765.748910625, 1.3472155952150675, -0.44262085407094504, 0.3479792955214505, -0.036280229687690735, -0.01809673011302948, 0.014921282418072224, 0.8811408281326294, 0.42830923199653625, -0.20035578310489655, 0.013451635837554932, 0.006642669439315796, -0.0004954338073730469, -0.2743280132486574, 0.5697071632583159, 0.7747063674484107,-0.002862790318635011,0.8906097412109375,0.4351806640625,-0.2005157470703125
20220122-1411,2022-01-22 14:11:44Z,u01, 191,40,movements,el-ex, rt, d,294765.773855625, 1.3471102371210175, -0.4426525840417668, 0.3489267109864185, -0.029330143705010414, -0.008978798985481262, 0.0003426726907491684, 0.8811064958572388, 0.4283379018306732, -0.20044560730457306, -0.004824519157409668, 0.00945216417312622, 0.0001589357852935791, -0.2746095193767527, 0.5695320963924897, 0.7747366647323779,-0.0024913146287824928,0.87628173828125,0.4377899169921875,-0.200286865234375
20220122-1411,2022-01-22 14:11:45Z,u01, 192,40,movements,el-ex, rt, d,294765.798800625, 1.3472421903976506, -0.44272848665511455, 0.3490729244273155, 0.016657620668411255, 0.015367353335022926, 0.002544640563428402, 0.8811010718345642, 0.4284064769744873, -0.20032209157943726, -0.006955504417419434, 0.010741472244262695, -0.0003307759761810303, -0.2746786184663644, 0.5695529922466884, 0.7746967221197958,-0.002476704252511286,0.8742828369140625,0.438629150390625,-0.19873046875
20220122-1411,2022-01-22 14:11:45Z,u01, 193,40,movements,el-ex, rt, d,294765.82374562504, 1.3472932377241327, -0.44248575668188966, 0.3483986651455252, 0.030432388186454773, 0.0075658224523067474, 0.0040559181943535805, 0.881212592124939, 0.42818713188171387, -0.20030014216899872, 0.00028765201568603516, 0.00838211178779602, -0.004167407751083374, -0.27439827293877594, 0.5696977430268436, 0.7746889456799833,-0.0026685394354802883,0.881500244140625,0.4365692138671875,-0.2044677734375
20220122-1411,2022-01-22 14:11:45Z,u01, 194,40,movements,el-ex, rt, d,294765.848690625, 1.3472586378596345, -0.4424150188067335, 0.3477580176576091, 0.008764478377997875, 0.0028437040746212006, -0.003194337710738182, 0.8812352418899536, 0.42812320590019226, -0.20033735036849976, 0.008184373378753662, 0.006401419639587402, 0.0015612989664077759, -0.2741900876923308, 0.569781641036007, 0.7747002023195537,-0.0028896862081367325,0.8922271728515625,0.4346923828125,-0.1980743408203125
20220122-1411,2022-01-22 14:11:45Z,u01, 195,40,movements,el-ex, rt, d,294765.873635625, 1.347260459504717, -0.442914651982553, 0.34823371800880554, -0.040279462933540344, -0.006545735523104668, -0.0009026210755109787, 0.8810269832611084, 0.42857468128204346, -0.2002883106470108, 0.007751822471618652, 0.0008992552757263184, 0.0018632560968399048, -0.2745072694139051, 0.569650419402416, 0.7746845139479802,-0.0028628322472586953,0.8887786865234375,0.429473876953125,-0.19842529296875
20220122-1411,2022-01-22 14:11:45Z,u01, 196,40,movements,el-ex, rt, d,294765.898579625, 1.3474655383154388, -0.44352477653431666, 0.34917054907812245, -0.021920297294855118, 0.0015982110053300858, -0.011062314733862877, 0.8808128833770752, 0.4291258454322815, -0.20004968345165253, -0.008040547370910645, 0.005139291286468506, -0.0032276809215545654, -0.27499559168819376, 0.5695196096901813, 0.7746079948062831,-0.0027200926724960106,0.8710784912109375,0.4364013671875,-0.2042388916015625
20220122-1411,2022-01-22 14:11:45Z,u01, 197,40,movements,el-ex, rt, d,294765.923524625, 1.3474729599930586, -0.44387567340753076, 0.3487999497509285, 0.04692387953400612, 0.009844157844781876, -0.01770769990980625, 0.8806675672531128, 0.42944279313087463, -0.2000098079442978, -0.004049897193908691, 0.00894230604171753, -0.006319284439086914, -0.2750175715673732, 0.5695265000407229, 0.7745942639824492,-0.0029750261021181945,0.876617431640625,0.438385009765625,-0.206329345703125
20220122-1411,2022-01-22 14:11:45Z,u01, 198,40,movements,el-ex, rt, d,294765.94846962503, 1.3472602665740123, -0.443976111491522, 0.3475914383104656, 0.025329872965812683, -0.005618489347398281, -0.009967555291950703, 0.880582869052887, 0.4295334815979004, -0.2001875340938568, 0.008180737495422363, 0.00038295984268188477, -0.0011214017868041992, -0.2747102755110655, 0.5695967865707816, 0.7746496189760059,-0.003445473820582301,0.8919830322265625,0.4279022216796875,-0.2013092041015625
20220122-1411,2022-01-22 14:11:45Z,u01, 199,40,movements,el-ex, rt, d,294765.97341462504, 1.3467042412190509, -0.4442066667356893, 0.3474698011285168, -0.01677936315536499, -0.02218281850218773, -0.009910830296576023, 0.8803749680519104, 0.42974168062210083, -0.20065514743328094, 0.003917813301086426, -0.0031058192253112793, -0.005872368812561035, -0.2747604173075374, 0.5693673174273468, 0.7748004136166851,-0.0034887003326470323,0.8842926025390625,0.4266357421875,-0.2065277099609375
20220122-1411,2022-01-22 14:11:45Z,u01, 200,40,movements,el-ex, rt, d,294765.998359625, 1.346149069109731, -0.4446255336235981, 0.3477143545194692, -0.003545518033206463, -0.01757621578872204, -0.012815939262509346, 0.8800878524780273, 0.4301198422908783, -0.20110374689102173, -0.0004337430000305176, 0.004587888717651367, -0.007239580154418945, -0.2749833154361348, 0.5690626506242609, 0.7749453172536864,-0.0034493456375890297,0.877532958984375,0.43548583984375,-0.208099365234375
20220122-1411,2022-01-22 14:11:45Z,u01, 201,40,movements,el-ex, rt, d,294766.023303625, 1.3456909430163866, -0.4450403722321262, 0.3473862894990605, 0.015743523836135864, 0.00526178814470768, -0.02464643307030201, 0.8798215389251709, 0.4304943084716797, -0.20146705210208893, -0.0015712976455688477, 0.0026265084743499756, -0.001398324966430664, -0.2750417017482467, 0.5688747962309246, 0.7750615556236375,-0.0036438790645388353,0.8782501220703125,0.4331207275390625,-0.2028656005859375
20220122-1411,2022-01-22 14:11:45Z,u01, 202,40,movements,el-ex, rt, d,294766.048248625, 1.3455226349275335, -0.4452571726552344, 0.3469603252755522, 0.0059506818652153015, -0.014540410600602627, -0.019812263548374176, 0.8796967267990112, 0.4306899905204773, -0.2015943080186844, 0.013293564319610596, 0.00027933716773986816, 0.0006210207939147949, -0.2749997153987651, 0.5688391738365279, 0.7751016436546978,-0.0038539276357890118,0.8951873779296875,0.4285736083984375,-0.2017059326171875
20220122-1411,2022-01-22 14:11:45Z,u01, 203,40,movements,el-ex, rt, d,294766.073193625, 1.3445796875003049, -0.44570457307575423, 0.3468090072701729, -0.009339690208435059, -0.03098589926958084, -0.01810191571712494, 0.8793182969093323, 0.4310937225818634, -0.2023804783821106, 0.0017548799514770508, -0.004183262586593628, 0.00018650293350219727, -0.27512132471142603, 0.5684347103840393, 0.775354801685366,-0.00392344817514767,0.881072998046875,0.426910400390625,-0.2021942138671875
20220122-1411,2022-01-22 14:11:45Z,u01, 204,40,movements,el-ex, rt, d,294766.09813862504, 1.343859904639096, -0.44603590048852, 0.34670410078390745, 0.0028814226388931274, -0.009991666302084923, -0.0036699785850942135, 0.8790332078933716, 0.4313926696777344, -0.20298118889331818, -0.004963815212249756, -0.0056418776512146, 2.4259090423583984e-05, -0.2752135301963976, 0.5681257918543983, 0.7755482483928129,-0.003969122254235069,0.875244140625,0.426513671875,-0.20062255859375
20220122-1411,2022-01-22 14:11:45Z,u01, 205,40,movements,el-ex, rt, d,294766.123083625, 1.343775914533914, -0.44604475827508416, 0.34676364977453883, -0.007809372153133154, -0.014655793085694313, -0.0018871254287660122, 0.8790123462677002, 0.4314006567001343, -0.20305414497852325, 0.008194804191589355, -0.0031321942806243896, 0.007467225193977356, -0.2752338503142516, 0.5680838457545839, 0.7755718591863912,-0.003937268415123152,0.88720703125,0.4282684326171875,-0.195587158203125
20220122-1411,2022-01-22 14:11:45Z,u01, 206,40,movements,el-ex, rt, d,294766.148028625, 1.343592535176775, -0.4459639701208421, 0.34697661040761457, -0.004988319240510464, -0.007792361080646515, -0.005859829485416412, 0.879008948802948, 0.431327760219574, -0.20322316884994507, 0.005085349082946777, 0.0008774399757385254, 0.007025867700576782, -0.27526529428607927, 0.5679942223374631, 0.7756269371264369,-0.0038041017855337533,0.8831787109375,0.434478759765625,-0.1953582763671875
20220122-1411,2022-01-22 14:11:45Z,u01, 207,40,movements,el-ex, rt, d,294766.172972625, 1.34345069598247, -0.446023900814798, 0.3468632903956883, 0.006570233032107353, 0.001707201823592186, -0.007223567925393581, 0.8789550065994263, 0.43138185143470764, -0.2033420354127884, -0.0009946823120117188, -0.00012260675430297852, 0.008380711078643799, -0.27525518834349494, 0.567946797748276, 0.7756651050844499,-0.003847322609564885,0.877960205078125,0.4312591552734375,-0.1949615478515625
20220122-1411,2022-01-22 14:11:45Z,u01, 208,40,movements,el-ex, rt, d,294766.197917625, 1.343761975424438, -0.4462854686924633, 0.34674742554995724, 0.005787396803498268, 0.010649563744664192, -0.0195862278342247, 0.8789083957672119, 0.431617796421051, -0.20304302871227264, -0.002443373203277588, -9.918212890625e-05, 0.007517114281654358, -0.27531688545889027, 0.568048499195616, 0.7755679114149934,-0.004017190806554216,0.8751678466796875,0.431915283203125,-0.198577880859375
20220122-1411,2022-01-22 14:11:45Z,u01, 209,40,movements,el-ex, rt, d,294766.222862625, 1.3442276631539989, -0.4464677118718614, 0.34655023776560134, 0.011362757533788681, 0.010992377996444702, -0.010249651037156582, 0.8789260983467102, 0.43178218603134155, -0.20261602103710175, -0.0020338892936706543, 0.00016364455223083496, 0.0015053898096084595, -0.27532625538518485, 0.5682318546595762, 0.7754291625348313,-0.004214981313967581,0.87689208984375,0.43194580078125,-0.20111083984375
20220122-1411,2022-01-22 14:11:45Z,u01, 210,40,movements,el-ex, rt, d,294766.24780762504, 1.3443381746893976, -0.44671561786832914, 0.34617858228049375, 0.010961552150547504, -0.0007902458310127258, -0.014031605795025826, 0.8788442611694336, 0.43200579285621643, -0.20249487459659576, 0.0016185641288757324, -0.0010364353656768799, 0.0006213188171386719, -0.2753106293753319, 0.5682927265512343, 0.775388828396252,-0.004452114275793229,0.8813018798828125,0.4311065673828125,-0.20208740234375
20220122-1411,2022-01-22 14:11:45Z,u01, 211,40,movements,el-ex, rt, d,294766.2727525417, 1.3446254887889646, -0.44707394412218016, 0.3464122894981077, -0.02056398242712021, 0.00027987919747829437, -0.012321523390710354, 0.8787514567375183, 0.4323289096355438, -0.20220762491226196, 0.005877017974853516, 0.0019362866878509521, -0.0019089579582214355, -0.2755067879416757, 0.5683240228168724, 0.7752958565177093,-0.004513600356326253,0.8846282958984375,0.43426513671875,-0.2041168212890625
20220122-1411,2022-01-22 14:11:45Z,u01, 212,40,movements,el-ex, rt, d,294766.2976975417, 1.344762394140993, -0.4476631939263571, 0.3470467150388501, -0.02287410944700241, -0.0022764215245842934, -0.021033454686403275, 0.878530740737915, 0.4328601658344269, -0.20203019678592682, 0.0042819976806640625, 0.0036329030990600586, -0.0008352100849151611, -0.2759011100048865, 0.5682107698223099, 0.7752388932449508,-0.004471611687432153,0.8798980712890625,0.4369049072265625,-0.202911376953125
20220122-1411,2022-01-22 14:11:45Z,u01, 213,40,movements,el-ex, rt, d,294766.32264154166, 1.3449384921743293, -0.44823259355224954, 0.3471685530340739, 0.010837449692189693, 0.011171076446771622, -0.023768655955791473, 0.8783259391784668, 0.4333733916282654, -0.2018202692270279, -0.0023033618927001953, 0.004370898008346558, -0.003578096628189087, -0.27614241767362124, 0.5681859146407147, 0.7751702902710855,-0.004627537664149972,0.8760223388671875,0.437744140625,-0.2053985595703125
20220122-1411,2022-01-22 14:11:45Z,u01, 214,40,movements,el-ex, rt, d,294766.34758654167, 1.3449206876901387, -0.44843446224704997, 0.34656284339583965, 0.02070080116391182, 0.006289634853601456, -0.007072366774082184, 0.8782370686531067, 0.4335553050041199, -0.20181630551815033, 0.006910145282745361, -0.00150260329246521, -0.001033782958984375, -0.27604379204005125, 0.5682355784565446, 0.7751671931081202,-0.004923252814910295,0.8873748779296875,0.43096923828125,-0.2011871337890625
20220122-1411,2022-01-22 14:11:45Z,u01, 215,40,movements,el-ex, rt, d,294766.3725315417, 1.344798781405471, -0.4485263859281145, 0.34620709147894946, -0.0014695841819047928, -0.0022129714488983154, -0.005101294256746769, 0.8781735897064209, 0.43363815546035767, -0.20191442966461182, 0.0030979514122009277, -0.001814335584640503, -0.001332402229309082, -0.27597646514723917, 0.5682251132394509, 0.7751978321898275,-0.0050731968976006625,0.8812713623046875,0.43182373046875,-0.2032470703125
20220122-1411,2022-01-22 14:11:45Z,u01, 216,40,movements,el-ex, rt, d,294766.3974765417, 1.3447615359470402, -0.4487680690490244, 0.3462016324571307, -0.0033604283817112446, 0.0029482338577508926, -0.006102110259234905, 0.8780637979507446, 0.43385592103004456, -0.20192362368106842, 0.0023683905601501465, -0.0023373067378997803, -0.006206020712852478, -0.27606293232523216, 0.5681790642352103, 0.7752002516321265,-0.005146094630762932,0.8804779052734375,0.432281494140625,-0.205841064453125
20220122-1411,2022-01-22 14:11:45Z,u01, 217,40,movements,el-ex, rt, d,294766.4224215417, 1.344792289161849, -0.44897647575027927, 0.34622905923152053, 0.0013266019523143768, 0.002716273069381714, -0.010602319613099098, 0.8779819011688232, 0.43404367566108704, -0.20187634229660034, 0.003747284412384033, -0.00046512484550476074, 0.00029274821281433105, -0.2761464469182025, 0.5681592794614571, 0.7751846075262528,-0.005205166101884984,0.8817291259765625,0.4335784912109375,-0.2015838623046875
20220122-1411,2022-01-22 14:11:45Z,u01, 218,40,movements,el-ex, rt, d,294766.4473655417, 1.3448450255198947, -0.4489434314998, 0.34612789179879155, 0.00157234538346529, -0.0009718062356114388, -0.0025226883590221405, 0.8780065774917603, 0.43401390314102173, -0.20183327794075012, 0.006957590579986572, -0.0015797913074493408, 0.0003259330987930298, -0.27610553902899293, 0.5681981123577152, 0.7751705234157285,-0.005241267892351131,0.8840484619140625,0.432098388671875,-0.2021942138671875
20220122-1411,2022-01-22 14:11:45Z,u01, 219,40,movements,el-ex, rt, d,294766.47231054166, 1.3447046252516275, -0.44896722697824737, 0.3461588800657882, -0.007552809081971645, 0.00043947063386440277, -0.008411670103669167, 0.8779681324958801, 0.4340353310108185, -0.2019542157649994, -0.00019091367721557617, -0.0014333724975585938, -0.0006822198629379272, -0.276123372346211, 0.5681362291882757, 0.7752096523304611,-0.005217355954468039,0.877777099609375,0.4326019287109375,-0.20263671875
20220122-1411,2022-01-22 14:11:45Z,u01, 220,40,movements,el-ex, rt, d,294766.4972555417, 1.3447538880506889, -0.4491400655271644, 0.34617565250120763, 0.0011866865679621696, 0.0021903663873672485, -0.0094613553956151, 0.8779050707817078, 0.4341910481452942, -0.20189417898654938, 0.0004216432571411133, 0.000699847936630249, 0.0004936158657073975, -0.27619085314365444, 0.568129848564159, 0.7751900065389435,-0.005271919247809231,0.8778839111328125,0.4349212646484375,-0.1988372802734375
20220122-1411,2022-01-22 14:11:45Z,u01, 221,40,movements,el-ex, rt, d,294766.5222005417, 1.3449261861744362, -0.4492409384217382, 0.3460494273516635, 0.008582983165979385, 0.009570850059390068, -0.0049903737381100655, 0.8778969645500183, 0.4342819154262543, -0.2017330676317215, 0.006578803062438965, 0.0011429190635681152, 0.003292769193649292, -0.27619124762804914, 0.5682005467151621, 0.7751372174534924,-0.0053763444638431634,0.8844757080078125,0.4354248046875,-0.1984405517578125
20220122-1411,2022-01-22 14:11:45Z,u01, 222,40,movements,el-ex, rt, d,294766.5471455417, 1.344986749424333, -0.44939983914384396, 0.3459023944221794, -0.0060839103534817696, 0.002002546563744545, -0.014827425591647625, 0.8778420686721802, 0.4344250559806824, -0.20166447758674622, 0.0035362839698791504, -0.00240287184715271, 0.0013930946588516235, -0.27620707709943754, 0.5682230309221211, 0.7751143850863557,-0.005491580699424958,0.8813018798828125,0.4330902099609375,-0.200592041015625
20220122-1411,2022-01-22 14:11:45Z,u01, 223,40,movements,el-ex, rt, d,294766.5720895417, 1.3453448146282168, -0.44977800887851505, 0.34620444615742907, -0.01724192127585411, 0.007958905771374702, -0.015819519758224487, 0.8777539730072021, 0.43476563692092896, -0.20131339132785797, 0.00046575069427490234, 0.0019867420196533203, 0.0035902410745620728, -0.2764294289725354, 0.5682693716706536, 0.7750007289714584,-0.005542806388580623,0.8782196044921875,0.4367523193359375,-0.197723388671875
20220122-1411,2022-01-22 14:11:45Z,u01, 224,40,movements,el-ex, rt, d,294766.59703454166, 1.3459748486225436, -0.45020670200152824, 0.3466085157169853, -0.018021995201706886, 0.017748352140188217, -0.01233484037220478, 0.8776987791061401, 0.4351516366004944, -0.2007187455892563, 0.004366099834442139, 0.0019211769104003906, 0.004674091935157776, -0.2766983317497, 0.5684000878200709, 0.7748083722609417,-0.005608092883982951,0.8840179443359375,0.43658447265625,-0.1971282958984375
20220122-1411,2022-01-22 14:11:45Z,u01, 225,40,movements,el-ex, rt, d,294766.62197954167, 1.3464802200935233, -0.4504070011498768, 0.3470561959696537, -0.022227026522159576, 0.006628522649407387, -0.009186782874166965, 0.8777152895927429, 0.43533197045326233, -0.20025579631328583, 0.004151344299316406, -0.001112520694732666, -0.0005191564559936523, -0.2768969172261083, 0.5685069900557077, 0.7746593855164365,-0.005567556505331139,0.881866455078125,0.4342193603515625,-0.200775146484375
20220122-1411,2022-01-22 14:11:45Z,u01, 226,40,movements,el-ex, rt, d,294766.6469245417, 1.3469019462513376, -0.4505792345736311, 0.3473517833330741, 0.001932571642100811, 0.013992296531796455, -0.015089813619852066, 0.8777264356613159, 0.4354870319366455, -0.19986896216869354, 0.0001423358917236328, 0.004103511571884155, -0.0046291351318359375, -0.27704234500126457, 0.5686062421709237, 0.7745345005200863,-0.005565646418289272,0.8765106201171875,0.44134521484375,-0.2041168212890625
20220122-1411,2022-01-22 14:11:45Z,u01, 227,40,movements,el-ex, rt, d,294766.6718695417, 1.3473501211611547, -0.4509786798269292, 0.34701426486812287, 0.018830962479114532, 0.0204706359654665, -0.02159012295305729, 0.8776462078094482, 0.43584656715393066, -0.1994369924068451, -0.004568696022033691, 0.002263873815536499, -0.004481196403503418, -0.27709015357281797, 0.5687728432529208, 0.774392693777019,-0.0058840662555268985,0.873077392578125,0.4381103515625,-0.20391845703125
20220122-1411,2022-01-22 14:11:45Z,u01, 228,40,movements,el-ex, rt, d,294766.6968145417, 1.3473507037869241, -0.4511573406259228, 0.34608929739272515, 0.037750422954559326, 0.004803460091352463, -0.013198303058743477, 0.877570390701294, 0.43600738048553467, -0.19941923022270203, -0.0023108720779418945, 0.0009433329105377197, -0.013410121202468872, -0.27689196337049526, 0.5688771652834037, 0.7743836730295073,-0.006298490930963241,0.87451171875,0.4397430419921875,-0.21356201171875
20220122-1411,2022-01-22 14:11:45Z,u01, 229,40,movements,el-ex, rt, d,294766.7217585417, 1.3467666143065498, -0.4511240237477581, 0.3450841709893859, 0.015293916687369347, -0.01375517901033163, -0.0011950363405048847, 0.8774679899215698, 0.43597736954689026, -0.19993501901626587, 0.007725059986114502, -0.0011933445930480957, -0.007187545299530029, -0.2765958513588055, 0.5687945371576604, 0.7745477704542436,-0.00659639165527709,0.88519287109375,0.434783935546875,-0.207122802734375
20220122-1411,2022-01-22 14:11:45Z,u01, 230,40,movements,el-ex, rt, d,294766.74670354166, 1.3462172684107245, -0.45149545477915337, 0.3453198521999454, -0.037081241607666016, -0.03281375765800476, -0.0184921994805336, 0.8772000670433044, 0.43631163239479065, -0.20038093626499176, 0.011838197708129883, -0.0010698139667510986, -0.003445744514465332, -0.27679963483827086, 0.5684993367223492, 0.7746920687390921,-0.0065458842234893955,0.886138916015625,0.4372406005859375,-0.201385498046875
20220122-1411,2022-01-22 14:11:45Z,u01, 231,40,movements,el-ex, rt, d,294766.7716485417, 1.3454949104997145, -0.4522172575317131, 0.34607226831303084, -0.027624255046248436, -0.0220852792263031, -0.02625191956758499, 0.8767479062080383, 0.43696099519729614, -0.20094412565231323, -0.004051804542541504, 0.0046131908893585205, -0.007368683815002441, -0.27727804089569374, 0.5680183324678254, 0.7748751661192237,-0.006381176438301772,0.8726959228515625,0.4415740966796875,-0.20831298828125
20220122-1411,2022-01-22 14:11:46Z,u01, 232,40,movements,el-ex, rt, d,294766.7965935417, 1.3448873509248978, -0.45284066759033786, 0.34574932124196933, 0.02316412329673767, -0.0013634227216243744, -0.025621481239795685, 0.8763599395751953, 0.43752163648605347, -0.20141568779945374, -0.0037707090377807617, 0.006356537342071533, -0.0005036294460296631, -0.27741488767898465, 0.5677438972248067, 0.775025267832303,-0.006617905897014442,0.8771209716796875,0.443389892578125,-0.2019805908203125
20220122-1411,2022-01-22 14:11:46Z,u01, 233,40,movements,el-ex, rt, d,294766.8215385417, 1.3441207267571285, -0.4527282797799841, 0.34481356210821207, 0.017284562811255455, -0.018360450863838196, -0.004614934790879488, 0.8762533068656921, 0.4374205768108368, -0.2020985633134842, 0.0075359344482421875, -0.003124833106994629, 0.0040397047996521, -0.27711098437269566, 0.5675915998201679, 0.7752436944946295,-0.006838981790553367,0.8837890625,0.434295654296875,-0.19805908203125
20220122-1411,2022-01-22 14:11:46Z,u01, 234,40,movements,el-ex, rt, d,294766.8464835417, 1.3437246566753296, -0.4526486060259535, 0.3451068659135248, -0.024811791256070137, -0.018691280856728554, 0.006914089433848858, 0.8762070536613464, 0.4373489320278168, -0.20245341956615448, 0.005354404449462891, -0.004853755235671997, 0.006591796875, -0.2771665879057459, 0.5674081195078573, 0.7753597192021404,-0.006645410488287762,0.880401611328125,0.4357757568359375,-0.1960906982421875
20220122-1411,2022-01-22 14:11:46Z,u01, 235,40,movements,el-ex, rt, d,294766.87142754166, 1.3435188492121584, -0.45297716122441084, 0.3455366406459893, -0.0006640106439590454, -0.002870839089155197, -0.0068832822144031525, 0.8760251998901367, 0.4376443922519684, -0.2026013284921646, 0.0009585022926330566, 0.008690506219863892, 0.006480351090431213, -0.2774086820275794, 0.5672246083218999, 0.7754081288884097,-0.006553386831472108,0.876983642578125,0.4463348388671875,-0.1961212158203125
20220122-1411,2022-01-22 14:11:46Z,u01, 236,40,movements,el-ex, rt, d,294766.89637254167, 1.343472853192581, -0.4531364259389788, 0.3450947463562667, 0.03099331632256508, 0.015665162354707718, -0.014074749313294888, 0.8759481310844421, 0.43778756260871887, -0.20262594521045685, -0.0031909942626953125, 0.004015505313873291, 0.008030891418457031, -0.27734140550140485, 0.5672466570857969, 0.775414327949583,-0.006768287218497093,0.8736724853515625,0.4407196044921875,-0.1955718994140625
20220122-1411,2022-01-22 14:11:46Z,u01, 237,40,movements,el-ex, rt, d,294766.9213175417, 1.3438164626411497, -0.4530326553876518, 0.34413238809831304, 0.03609746694564819, 0.017485830932855606, -0.009000228717923164, 0.8760618567466736, 0.4376942813396454, -0.2023351490497589, 0.002035796642303467, -0.0010487139225006104, 0.003971114754676819, -0.2770294678577536, 0.5675271775922445, 0.7753170085809927,-0.007156449240416418,0.8780975341796875,0.4366455078125,-0.1983642578125
20220122-1411,2022-01-22 14:11:46Z,u01, 238,40,movements,el-ex, rt, d,294766.9462625417, 1.3439801417572819, -0.4530973478328642, 0.34363875344120076, 0.0011248011142015457, -0.002416570670902729, -0.0039743781089782715, 0.8760673403739929, 0.43775245547294617, -0.20218539237976074, 0.0057533979415893555, -0.007485061883926392, 0.0006017833948135376, -0.2769123138017364, 0.5676503121661265, 0.7752665086254741,-0.007390778695120337,0.8823394775390625,0.4293975830078125,-0.201904296875
20220122-1411,2022-01-22 14:11:46Z,u01, 239,40,movements,el-ex, rt, d,294766.9712075417, 1.3443737963633893, -0.4535349179716602, 0.3442603227922907, -0.030177393928170204, -0.011823254637420177, -0.004374251235276461, 0.875960111618042, 0.43814581632614136, -0.2017974853515625, 0.004655182361602783, -0.003148198127746582, 0.0017550140619277954, -0.27724640894799535, 0.5676580728700643, 0.7751418730725013,-0.007341756835229252,0.880615234375,0.43499755859375,-0.200042724609375
20220122-1411,2022-01-22 14:11:46Z,u01, 240,40,movements,el-ex, rt, d,294766.9961515417, 1.3446537271376502, -0.4539112501163497, 0.3450134776487164, -0.019022345542907715, -0.0027836868539452553, -0.01007874310016632, 0.8758559823036194, 0.4384840726852417, -0.2015153169631958, 0.0011583566665649414, 0.0010454356670379639, 0.0012744665145874023, -0.2775959320911356, 0.5676115223107115, 0.7750522461621503,-0.007206839746963067,0.87725830078125,0.4407501220703125,-0.2010955810546875
20220122-1411,2022-01-22 14:11:46Z,u01, 241,40,movements,el-ex, rt, d,294767.02109654166, 1.3447624425325162, -0.45398468927082, 0.34506862655069226, 0.011370413936674595, 0.00583716481924057, -0.00813044048845768, 0.8758463859558105, 0.43855008482933044, -0.2014128416776657, -0.0006631612777709961, -0.0034761428833007812, -0.004000768065452576, -0.277637906405249, 0.5676361241312856, 0.7750189336014487,-0.007223646227041691,0.87518310546875,0.4350738525390625,-0.205413818359375
20220122-1411,2022-01-22 14:11:46Z,u01, 242,40,movements,el-ex, rt, d,294767.0460415417, 1.3447265953111418, -0.4537615250794221, 0.34454330337660144, 0.024412546306848526, 0.005656002089381218, 0.0035282792523503304, 0.8759345412254333, 0.43834951519966125, -0.2014661729335785, -0.0019567012786865234, -0.003657042980194092, 0.00032508373260498047, -0.27740781241900747, 0.5677251235951495, 0.7750349402001918,-0.007352157180710195,0.87481689453125,0.4354400634765625,-0.20037841796875
20220122-1411,2022-01-22 14:11:46Z,u01, 243,40,movements,el-ex, rt, d,294767.0709865417, 1.3447000232240502, -0.45330165466397815, 0.3439621814958508, 0.017707139253616333, 0.004049917683005333, 0.013841968961060047, 0.8761255145072937, 0.43793612718582153, -0.20153462886810303, 0.01007455587387085, -0.0022366344928741455, -0.0015443414449691772, -0.2770757502530369, 0.5678571261556745, 0.7750562909767997,-0.00742926020831608,0.886199951171875,0.435699462890625,-0.2030792236328125
20220122-1411,2022-01-22 14:11:46Z,u01, 244,40,movements,el-ex, rt, d,294767.0959315417, 1.3447299537768473, -0.4529506138529764, 0.3439545882499119, -0.012156583368778229, 0.004252118989825249, 0.013634576462209225, 0.8762813806533813, 0.43762052059173584, -0.20154285430908203, 0.010956287384033203, -0.0007460117340087891, -0.002085447311401367, -0.2769458435292431, 0.5679168694166108, 0.7750599585251271,-0.007326107894596645,0.8837890625,0.43585205078125,-0.2033843994140625
20220122-1411,2022-01-22 14:11:46Z,u01, 245,40,movements,el-ex, rt, d,294767.1208765417, 1.3449200843272904, -0.4527924707250946, 0.34422415981976373, 0.00035797711461782455, 0.013677511364221573, -0.001429927535355091, 0.8763871192932129, 0.43747830390930176, -0.20139174163341522, -0.00233304500579834, 0.004645168781280518, -0.004830598831176758, -0.27696420583752224, 0.5679744325847408, 0.7750124164160465,-0.007198308398263686,0.874053955078125,0.4421234130859375,-0.2062225341796875
20220122-1411,2022-01-22 14:11:46Z,u01, 246,40,movements,el-ex, rt, d,294767.14582054166, 1.3450908452566015, -0.4526686216241004, 0.3439188585736581, 0.013841263018548489, 0.004969706758856773, 0.0013452861458063126, 0.8764742016792297, 0.43736693263053894, -0.20125418901443481, -0.001291036605834961, 0.0009723305702209473, -0.005166500806808472, -0.27683186454479436, 0.5680994833326027, 0.774967008466217,-0.007301371917053212,0.8769683837890625,0.436737060546875,-0.2039947509765625
20220122-1411,2022-01-22 14:11:46Z,u01, 247,40,movements,el-ex, rt, d,294767.17076554167, 1.3449158122894949, -0.45244282552204795, 0.34394746330935094, -0.006894242949783802, -0.016509752720594406, 0.0018105404451489449, 0.8765352368354797, 0.4371638596057892, -0.20142970979213715, 0.00012809038162231445, -0.002990245819091797, -0.0007184594869613647, -0.27675852549848745, 0.5680579724468163, 0.7750246361472091,-0.007195144358020544,0.8766632080078125,0.434173583984375,-0.2021484375
20220122-1411,2022-01-22 14:11:46Z,u01, 248,40,movements,el-ex, rt, d,294767.1957105417, 1.344633412695676, -0.45249079013885274, 0.34434513787293963, -0.011889667250216007, -0.013389061205089092, 0.0017828438431024551, 0.8764579892158508, 0.43720701336860657, -0.20167256891727448, -0.002663254737854004, 0.005297958850860596, -0.002367734909057617, -0.276889880655774, 0.567887055642021, 0.7751047073529703,-0.007016982845934772,0.874114990234375,0.4426116943359375,-0.203369140625
